elapsed.time,key_resp.keys,key_resp.rt,instrLoop.thisRepN,instrLoop.thisTrialN,instrLoop.thisN,instrLoop.thisIndex,instrLoop.ran,participant,date,expName,psychopyVersion,OS,frameRate,key_resp_2.keys,key_resp_2.rt,instrAXCPTLoop.thisRepN,instrAXCPTLoop.thisTrialN,instrAXCPTLoop.thisN,instrAXCPTLoop.thisIndex,instrAXCPTLoop.ran,AXCPT_resp.keys,AXCPT_resp.corr,AXCPT_resp.rt,AXCPTtrialsLoop.thisRepN,AXCPTtrialsLoop.thisTrialN,AXCPTtrialsLoop.thisN,AXCPTtrialsLoop.thisIndex,AXCPTtrialsLoop.ran,trialNumber,trial,cueType,probeType,trialType,corrResponse,break1.duration,restBreak1_key_resp.keys,restBreak1_key_resp.rt,key_resp_3.keys,key_resp_3.rt,instrNBackLoop.thisRepN,instrNBackLoop.thisTrialN,instrNBackLoop.thisN,instrNBackLoop.thisIndex,instrNBackLoop.ran,NBack_resp_1.keys,NBackTargetLoop.thisRepN,NBackTargetLoop.thisTrialN,NBackTargetLoop.thisN,NBackTargetLoop.thisIndex,NBackTargetLoop.ran,NBack_resp_2.keys,NBack_resp_2.corr,NBackTrialsLoop.thisRepN,NBackTrialsLoop.thisTrialN,NBackTrialsLoop.thisN,NBackTrialsLoop.thisIndex,NBackTrialsLoop.ran
8.092,right,7.986,0,0,0,0,1,Alastair,2024-01-20_09h48.15.427,Mental Fatigue Training Session,2020.2.4,MacIntel,60,,,,,,,,,,,,,,,,,,,,,,,,,,,,,,,,,,,,,,,,,,,,
24.281,right,16.121,1,0,1,0,1,Alastair,2024-01-20_09h48.15.427,Mental Fatigue Training Session,2020.2.4,MacIntel,60,,,,,,,,,,,,,,,,,,,,,,,,,,,,,,,,,,,,,,,,,,,,
31.917,right,7.593,2,0,2,0,1,Alastair,2024-01-20_09h48.15.427,Mental Fatigue Training Session,2020.2.4,MacIntel,60,,,,,,,,,,,,,,,,,,,,,,,,,,,,,,,,,,,,,,,,,,,,
51.641,,,,,,,,Alastair,2024-01-20_09h48.15.427,Mental Fatigue Training Session,2020.2.4,MacIntel,60,right,19.659,0,0,0,0,1,,,,,,,,,,,,,,,,,,,,,,,,,,,,,,,,,,,,,
87.904,,,,,,,,Alastair,2024-01-20_09h48.15.427,Mental Fatigue Training Session,2020.2.4,MacIntel,60,right,36.206,1,0,1,0,1,,,,,,,,,,,,,,,,,,,,,,,,,,,,,,,,,,,,,
96.808,,,,,,,,Alastair,2024-01-20_09h48.15.427,Mental Fatigue Training Session,2020.2.4,MacIntel,60,right,8.847,2,0,2,0,1,,,,,,,,,,,,,,,,,,,,,,,,,,,,,,,,,,,,,
104.926,,,,,,,,Alastair,2024-01-20_09h48.15.427,Mental Fatigue Training Session,2020.2.4,MacIntel,60,k,8.101,3,0,3,0,1,,,,,,,,,,,,,,,,,,,,,,,,,,,,,,,,,,,,,
106.127,,,,,,,,Alastair,2024-01-20_09h48.15.427,Mental Fatigue Training Session,2020.2.4,MacIntel,60,,,,,,,,k,1,0.627,0,0,0,5,1,6,AX,A,X,target,k,,,,,,,,,,,,,,,,,,,,,,,
113.48,,,,,,,,Alastair,2024-01-20_09h48.15.427,Mental Fatigue Training Session,2020.2.4,MacIntel,60,,,,,,,,d,1,0.667,0,1,1,8,1,9,AY,A,Y,cueWrong,d,,,,,,,,,,,,,,,,,,,,,,,
120.866,,,,,,,,Alastair,2024-01-20_09h48.15.427,Mental Fatigue Training Session,2020.2.4,MacIntel,60,,,,,,,,k,1,0.517,0,2,2,0,1,1,AX,A,X,target,k,,,,,,,,,,,,,,,,,,,,,,,
128.102,,,,,,,,Alastair,2024-01-20_09h48.15.427,Mental Fatigue Training Session,2020.2.4,MacIntel,60,,,,,,,,k,1,0.616,0,3,3,4,1,5,AX,A,X,target,k,,,,,,,,,,,,,,,,,,,,,,,
135.439,,,,,,,,Alastair,2024-01-20_09h48.15.427,Mental Fatigue Training Session,2020.2.4,MacIntel,60,,,,,,,,k,1,0.635,0,4,4,1,1,2,AX,A,X,target,k,,,,,,,,,,,,,,,,,,,,,,,
142.79,,,,,,,,Alastair,2024-01-20_09h48.15.427,Mental Fatigue Training Session,2020.2.4,MacIntel,60,,,,,,,,d,1,0.523,0,5,5,9,1,10,BY,B,Y,bothWrong,d,,,,,,,,,,,,,,,,,,,,,,,
150.044,,,,,,,,Alastair,2024-01-20_09h48.15.427,Mental Fatigue Training Session,2020.2.4,MacIntel,60,,,,,,,,d,1,0.684,0,6,6,7,1,8,BX,B,X,probeWrong,d,,,,,,,,,,,,,,,,,,,,,,,
157.446,,,,,,,,Alastair,2024-01-20_09h48.15.427,Mental Fatigue Training Session,2020.2.4,MacIntel,60,,,,,,,,k,1,0.562,0,7,7,3,1,4,AX,A,X,target,k,,,,,,,,,,,,,,,,,,,,,,,
164.731,,,,,,,,Alastair,2024-01-20_09h48.15.427,Mental Fatigue Training Session,2020.2.4,MacIntel,60,,,,,,,,k,1,0.468,0,8,8,6,1,7,AX,A,X,target,k,,,,,,,,,,,,,,,,,,,,,,,
171.918,,,,,,,,Alastair,2024-01-20_09h48.15.427,Mental Fatigue Training Session,2020.2.4,MacIntel,60,,,,,,,,k,1,0.47,0,9,9,2,1,3,AX,A,X,target,k,,,,,,,,,,,,,,,,,,,,,,,
179.104,,,,,,,,Alastair,2024-01-20_09h48.15.427,Mental Fatigue Training Session,2020.2.4,MacIntel,60,,,,,,,,d,1,0.63,1,0,10,7,1,8,BX,B,X,probeWrong,d,,,,,,,,,,,,,,,,,,,,,,,
186.457,,,,,,,,Alastair,2024-01-20_09h48.15.427,Mental Fatigue Training Session,2020.2.4,MacIntel,60,,,,,,,,k,1,0.477,1,1,11,5,1,6,AX,A,X,target,k,,,,,,,,,,,,,,,,,,,,,,,
193.658,,,,,,,,Alastair,2024-01-20_09h48.15.427,Mental Fatigue Training Session,2020.2.4,MacIntel,60,,,,,,,,k,1,0.501,1,2,12,4,1,5,AX,A,X,target,k,,,,,,,,,,,,,,,,,,,,,,,
200.879,,,,,,,,Alastair,2024-01-20_09h48.15.427,Mental Fatigue Training Session,2020.2.4,MacIntel,60,,,,,,,,k,1,0.466,1,3,13,6,1,7,AX,A,X,target,k,,,,,,,,,,,,,,,,,,,,,,,
208.064,,,,,,,,Alastair,2024-01-20_09h48.15.427,Mental Fatigue Training Session,2020.2.4,MacIntel,60,,,,,,,,d,1,0.543,1,4,14,9,1,10,BY,B,Y,bothWrong,d,,,,,,,,,,,,,,,,,,,,,,,
215.334,,,,,,,,Alastair,2024-01-20_09h48.15.427,Mental Fatigue Training Session,2020.2.4,MacIntel,60,,,,,,,,d,1,0.515,1,5,15,8,1,9,AY,A,Y,cueWrong,d,,,,,,,,,,,,,,,,,,,,,,,
222.569,,,,,,,,Alastair,2024-01-20_09h48.15.427,Mental Fatigue Training Session,2020.2.4,MacIntel,60,,,,,,,,k,1,0.634,1,6,16,3,1,4,AX,A,X,target,k,,,,,,,,,,,,,,,,,,,,,,,
229.921,,,,,,,,Alastair,2024-01-20_09h48.15.427,Mental Fatigue Training Session,2020.2.4,MacIntel,60,,,,,,,,k,1,0.486,1,7,17,2,1,3,AX,A,X,target,k,,,,,,,,,,,,,,,,,,,,,,,
237.126,,,,,,,,Alastair,2024-01-20_09h48.15.427,Mental Fatigue Training Session,2020.2.4,MacIntel,60,,,,,,,,k,1,0.466,1,8,18,1,1,2,AX,A,X,target,k,,,,,,,,,,,,,,,,,,,,,,,
244.31,,,,,,,,Alastair,2024-01-20_09h48.15.427,Mental Fatigue Training Session,2020.2.4,MacIntel,60,,,,,,,,k,1,0.632,1,9,19,0,1,1,AX,A,X,target,k,,,,,,,,,,,,,,,,,,,,,,,
251.664,,,,,,,,Alastair,2024-01-20_09h48.15.427,Mental Fatigue Training Session,2020.2.4,MacIntel,60,,,,,,,,k,1,0.566,2,0,20,2,1,3,AX,A,X,target,k,,,,,,,,,,,,,,,,,,,,,,,
258.949,,,,,,,,Alastair,2024-01-20_09h48.15.427,Mental Fatigue Training Session,2020.2.4,MacIntel,60,,,,,,,,k,1,0.416,2,1,21,4,1,5,AX,A,X,target,k,,,,,,,,,,,,,,,,,,,,,,,
266.086,,,,,,,,Alastair,2024-01-20_09h48.15.427,Mental Fatigue Training Session,2020.2.4,MacIntel,60,,,,,,,,d,1,0.444,2,2,22,9,1,10,BY,B,Y,bothWrong,d,,,,,,,,,,,,,,,,,,,,,,,
273.254,,,,,,,,Alastair,2024-01-20_09h48.15.427,Mental Fatigue Training Session,2020.2.4,MacIntel,60,,,,,,,,k,1,0.417,2,3,23,6,1,7,AX,A,X,target,k,,,,,,,,,,,,,,,,,,,,,,,
280.392,,,,,,,,Alastair,2024-01-20_09h48.15.427,Mental Fatigue Training Session,2020.2.4,MacIntel,60,,,,,,,,d,1,0.55,2,4,24,7,1,8,BX,B,X,probeWrong,d,,,,,,,,,,,,,,,,,,,,,,,
287.659,,,,,,,,Alastair,2024-01-20_09h48.15.427,Mental Fatigue Training Session,2020.2.4,MacIntel,60,,,,,,,,k,1,0.463,2,5,25,5,1,6,AX,A,X,target,k,,,,,,,,,,,,,,,,,,,,,,,
294.845,,,,,,,,Alastair,2024-01-20_09h48.15.427,Mental Fatigue Training Session,2020.2.4,MacIntel,60,,,,,,,,k,1,0.387,2,6,26,1,1,2,AX,A,X,target,k,,,,,,,,,,,,,,,,,,,,,,,
301.948,,,,,,,,Alastair,2024-01-20_09h48.15.427,Mental Fatigue Training Session,2020.2.4,MacIntel,60,,,,,,,,k,1,0.371,2,7,27,3,1,4,AX,A,X,target,k,,,,,,,,,,,,,,,,,,,,,,,
309.034,,,,,,,,Alastair,2024-01-20_09h48.15.427,Mental Fatigue Training Session,2020.2.4,MacIntel,60,,,,,,,,k,1,0.468,2,8,28,0,1,1,AX,A,X,target,k,,,,,,,,,,,,,,,,,,,,,,,
316.22,,,,,,,,Alastair,2024-01-20_09h48.15.427,Mental Fatigue Training Session,2020.2.4,MacIntel,60,,,,,,,,d,1,0.6,2,9,29,8,1,9,AY,A,Y,cueWrong,d,,,,,,,,,,,,,,,,,,,,,,,
323.54,,,,,,,,Alastair,2024-01-20_09h48.15.427,Mental Fatigue Training Session,2020.2.4,MacIntel,60,,,,,,,,k,1,0.439,3,0,30,0,1,1,AX,A,X,target,k,,,,,,,,,,,,,,,,,,,,,,,
330.693,,,,,,,,Alastair,2024-01-20_09h48.15.427,Mental Fatigue Training Session,2020.2.4,MacIntel,60,,,,,,,,k,1,0.4,3,1,31,2,1,3,AX,A,X,target,k,,,,,,,,,,,,,,,,,,,,,,,
337.811,,,,,,,,Alastair,2024-01-20_09h48.15.427,Mental Fatigue Training Session,2020.2.4,MacIntel,60,,,,,,,,k,1,0.417,3,2,32,4,1,5,AX,A,X,target,k,,,,,,,,,,,,,,,,,,,,,,,
344.947,,,,,,,,Alastair,2024-01-20_09h48.15.427,Mental Fatigue Training Session,2020.2.4,MacIntel,60,,,,,,,,d,1,0.822,3,3,33,8,1,9,AY,A,Y,cueWrong,d,,,,,,,,,,,,,,,,,,,,,,,
352.484,,,,,,,,Alastair,2024-01-20_09h48.15.427,Mental Fatigue Training Session,2020.2.4,MacIntel,60,,,,,,,,k,1,0.39,3,4,34,1,1,2,AX,A,X,target,k,,,,,,,,,,,,,,,,,,,,,,,
359.575,,,,,,,,Alastair,2024-01-20_09h48.15.427,Mental Fatigue Training Session,2020.2.4,MacIntel,60,,,,,,,,k,1,0.469,3,5,35,3,1,4,AX,A,X,target,k,,,,,,,,,,,,,,,,,,,,,,,
366.772,,,,,,,,Alastair,2024-01-20_09h48.15.427,Mental Fatigue Training Session,2020.2.4,MacIntel,60,,,,,,,,k,1,0.417,3,6,36,6,1,7,AX,A,X,target,k,,,,,,,,,,,,,,,,,,,,,,,
373.908,,,,,,,,Alastair,2024-01-20_09h48.15.427,Mental Fatigue Training Session,2020.2.4,MacIntel,60,,,,,,,,d,1,0.378,3,7,37,9,1,10,BY,B,Y,bothWrong,d,,,,,,,,,,,,,,,,,,,,,,,
381.01,,,,,,,,Alastair,2024-01-20_09h48.15.427,Mental Fatigue Training Session,2020.2.4,MacIntel,60,,,,,,,,d,1,0.598,3,8,38,7,1,8,BX,B,X,probeWrong,d,,,,,,,,,,,,,,,,,,,,,,,
388.329,,,,,,,,Alastair,2024-01-20_09h48.15.427,Mental Fatigue Training Session,2020.2.4,MacIntel,60,,,,,,,,k,1,0.456,3,9,39,5,1,6,AX,A,X,target,k,,,,,,,,,,,,,,,,,,,,,,,
395.499,,,,,,,,Alastair,2024-01-20_09h48.15.427,Mental Fatigue Training Session,2020.2.4,MacIntel,60,,,,,,,,d,1,0.568,4,0,40,8,1,9,AY,A,Y,cueWrong,d,,,,,,,,,,,,,,,,,,,,,,,
402.785,,,,,,,,Alastair,2024-01-20_09h48.15.427,Mental Fatigue Training Session,2020.2.4,MacIntel,60,,,,,,,,k,1,0.384,4,1,41,1,1,2,AX,A,X,target,k,,,,,,,,,,,,,,,,,,,,,,,
409.888,,,,,,,,Alastair,2024-01-20_09h48.15.427,Mental Fatigue Training Session,2020.2.4,MacIntel,60,,,,,,,,k,1,0.42,4,2,42,6,1,7,AX,A,X,target,k,,,,,,,,,,,,,,,,,,,,,,,
460.857,,,,,,,,Alastair,2024-01-20_09h48.15.427,Mental Fatigue Training Session,2020.2.4,MacIntel,60,,,,,,,,,,,,,,,,,,,,,,25.726,right,25.685,right,19.251,0,0,0,0,1,,,,,,,,,,,,,
485.515,,,,,,,,Alastair,2024-01-20_09h48.15.427,Mental Fatigue Training Session,2020.2.4,MacIntel,60,,,,,,,,,,,,,,,,,,,,,,,,,right,24.616,1,0,1,0,1,,,,,,,,,,,,,
490.901,,,,,,,,Alastair,2024-01-20_09h48.15.427,Mental Fatigue Training Session,2020.2.4,MacIntel,60,,,,,,,,,,,,,,,,,,,,,,,,,k,5.336,2,0,2,0,1,,,,,,,,,,,,,
492.101,,,,,,,,Alastair,2024-01-20_09h48.15.427,Mental Fatigue Training Session,2020.2.4,MacIntel,60,,,,,,,,,,,,,,,,,,,,,,,,,,,,,,,,,0,0,0,0,1,,,,,,,
495.303,,,,,,,,Alastair,2024-01-20_09h48.15.427,Mental Fatigue Training Session,2020.2.4,MacIntel,60,,,,,,,,,,,,,,,,,,,,,,,,,,,,,,,,,1,0,1,0,1,,,,,,,
498.502,,,,,,,,Alastair,2024-01-20_09h48.15.427,Mental Fatigue Training Session,2020.2.4,MacIntel,60,,,,,,,,,,,,,,,,,,,,,,,,,,,,,,,,,2,0,2,0,1,,,,,,,
501.705,,,,,,,,Alastair,2024-01-20_09h48.15.427,Mental Fatigue Training Session,2020.2.4,MacIntel,60,,,,,,,,,,,,,,,,,9,,,nonTarget,d,,,,,,,,,,,,,,,,,,0,0,0,0,8,1
505.893,,,,,,,,Alastair,2024-01-20_09h48.15.427,Mental Fatigue Training Session,2020.2.4,MacIntel,60,,,,,,,,,,,,,,,,,2,,,target,k,,,,,,,,,,,,,,,,,,0,0,1,1,1,1
510.085,,,,,,,,Alastair,2024-01-20_09h48.15.427,Mental Fatigue Training Session,2020.2.4,MacIntel,60,,,,,,,,,,,,,,,,,3,,,target,k,,,,,,,,,,,,,,,,,,0,0,2,2,2,1
514.297,,,,,,,,Alastair,2024-01-20_09h48.15.427,Mental Fatigue Training Session,2020.2.4,MacIntel,60,,,,,,,,,,,,,,,,,6,,,nonTarget,d,,,,,,,,,,,,,,,,,,0,0,3,3,5,1
518.493,,,,,,,,Alastair,2024-01-20_09h48.15.427,Mental Fatigue Training Session,2020.2.4,MacIntel,60,,,,,,,,,,,,,,,,,10,,,nonTarget,d,,,,,,,,,,,,,,,,,,0,0,4,4,9,1
522.695,,,,,,,,Alastair,2024-01-20_09h48.15.427,Mental Fatigue Training Session,2020.2.4,MacIntel,60,,,,,,,,,,,,,,,,,7,,,nonTarget,d,,,,,,,,,,,,,,,,,,0,0,5,5,6,1
526.896,,,,,,,,Alastair,2024-01-20_09h48.15.427,Mental Fatigue Training Session,2020.2.4,MacIntel,60,,,,,,,,,,,,,,,,,8,,,nonTarget,d,,,,,,,,,,,,,,,,,,0,0,6,6,7,1
