elapsed.time,key_resp.keys,key_resp.rt,instrLoop.thisRepN,instrLoop.thisTrialN,instrLoop.thisN,instrLoop.thisIndex,instrLoop.ran,participant,date,expName,psychopyVersion,OS,frameRate,key_resp_2.keys,key_resp_2.rt,instrAXCPTLoop.thisRepN,instrAXCPTLoop.thisTrialN,instrAXCPTLoop.thisN,instrAXCPTLoop.thisIndex,instrAXCPTLoop.ran,AXCPT_resp.keys,AXCPT_resp.corr,AXCPT_resp.rt,AXCPTtrialsLoop.thisRepN,AXCPTtrialsLoop.thisTrialN,AXCPTtrialsLoop.thisN,AXCPTtrialsLoop.thisIndex,AXCPTtrialsLoop.ran,trialNumber,trial,cueType,probeType,trialType,corrResponse,break1.duration,restBreak1_key_resp.keys,restBreak1_key_resp.rt,key_resp_3.keys,key_resp_3.rt,instrNBackLoop.thisRepN,instrNBackLoop.thisTrialN,instrNBackLoop.thisN,instrNBackLoop.thisIndex,instrNBackLoop.ran,NBack_resp_1.keys,NBackTargetLoop.thisRepN,NBackTargetLoop.thisTrialN,NBackTargetLoop.thisN,NBackTargetLoop.thisIndex,NBackTargetLoop.ran,NBack_resp_2.keys,NBack_resp_2.corr,NBackTrialsLoop.thisRepN,NBackTrialsLoop.thisTrialN,NBackTrialsLoop.thisN,NBackTrialsLoop.thisIndex,NBackTrialsLoop.ran,NBack_resp_2.rt,break2.duration,restBreak2_key_resp.keys,restBreak2_key_resp.rt,key_resp_4.keys,key_resp_4.rt,instrSearchLoop.thisRepN,instrSearchLoop.thisTrialN,instrSearchLoop.thisN,instrSearchLoop.thisIndex,instrSearchLoop.ran,key_resp_6.keys,key_resp_6.corr,key_resp_6.rt,searchLoop.thisRepN,searchLoop.thisTrialN,searchLoop.thisN,searchLoop.thisIndex,searchLoop.ran,cond,targetLetter,break3.duration,restBreak3_key_resp.keys,restBreak3_key_resp.rt,key_resp_5.keys,key_resp_5.rt,instrMentRotaLoop.thisRepN,instrMentRotaLoop.thisTrialN,instrMentRotaLoop.thisN,instrMentRotaLoop.thisIndex,instrMentRotaLoop.ran,MROT_resp.keys,MROT_resp.corr,MROT_resp.rt,mentRotTrialsLooop.thisRepN,mentRotTrialsLooop.thisTrialN,mentRotTrialsLooop.thisN,mentRotTrialsLooop.thisIndex,mentRotTrialsLooop.ran,imagefile,orientation,end_resp.keys,end_resp.rt
9.3199,right,9.0343,0,0,0,0,1,CU-MSc-pilot-1-LC,2023-10-19_16h30.06.563,Mental Fatigue Training Session,2020.2.4,Win32,60,,,,,,,,,,,,,,,,,,,,,,,,,,,,,,,,,,,,,,,,,,,,,,,,,,,,,,,,,,,,,,,,,,,,,,,,,,,,,,,,,,,,,,,
193.2581,right,183.9097,1,0,1,0,1,CU-MSc-pilot-1-LC,2023-10-19_16h30.06.563,Mental Fatigue Training Session,2020.2.4,Win32,60,,,,,,,,,,,,,,,,,,,,,,,,,,,,,,,,,,,,,,,,,,,,,,,,,,,,,,,,,,,,,,,,,,,,,,,,,,,,,,,,,,,,,,,
199.0046,right,5.7211,2,0,2,0,1,CU-MSc-pilot-1-LC,2023-10-19_16h30.06.563,Mental Fatigue Training Session,2020.2.4,Win32,60,,,,,,,,,,,,,,,,,,,,,,,,,,,,,,,,,,,,,,,,,,,,,,,,,,,,,,,,,,,,,,,,,,,,,,,,,,,,,,,,,,,,,,,
222.8159,,,,,,,,CU-MSc-pilot-1-LC,2023-10-19_16h30.06.563,Mental Fatigue Training Session,2020.2.4,Win32,60,right,23.7843,0,0,0,0,1,,,,,,,,,,,,,,,,,,,,,,,,,,,,,,,,,,,,,,,,,,,,,,,,,,,,,,,,,,,,,,,,,,,,,,,,,,,,,,,,
244.7593,,,,,,,,CU-MSc-pilot-1-LC,2023-10-19_16h30.06.563,Mental Fatigue Training Session,2020.2.4,Win32,60,right,21.9242,1,0,1,0,1,,,,,,,,,,,,,,,,,,,,,,,,,,,,,,,,,,,,,,,,,,,,,,,,,,,,,,,,,,,,,,,,,,,,,,,,,,,,,,,,
258.3014,,,,,,,,CU-MSc-pilot-1-LC,2023-10-19_16h30.06.563,Mental Fatigue Training Session,2020.2.4,Win32,60,left,13.5145,2,0,2,0,1,,,,,,,,,,,,,,,,,,,,,,,,,,,,,,,,,,,,,,,,,,,,,,,,,,,,,,,,,,,,,,,,,,,,,,,,,,,,,,,,
259.5513,,,,,,,,CU-MSc-pilot-1-LC,2023-10-19_16h30.06.563,Mental Fatigue Training Session,2020.2.4,Win32,60,right,1.2286,3,0,3,0,1,,,,,,,,,,,,,,,,,,,,,,,,,,,,,,,,,,,,,,,,,,,,,,,,,,,,,,,,,,,,,,,,,,,,,,,,,,,,,,,,
261.0001,,,,,,,,CU-MSc-pilot-1-LC,2023-10-19_16h30.06.563,Mental Fatigue Training Session,2020.2.4,Win32,60,k,1.4308,4,0,4,0,1,,,,,,,,,,,,,,,,,,,,,,,,,,,,,,,,,,,,,,,,,,,,,,,,,,,,,,,,,,,,,,,,,,,,,,,,,,,,,,,,
262.23,,,,,,,,CU-MSc-pilot-1-LC,2023-10-19_16h30.06.563,Mental Fatigue Training Session,2020.2.4,Win32,60,,,,,,,,d,1,0.8657,0,0,0,7,1,8,BX,B,X,probeWrong,d,,,,,,,,,,,,,,,,,,,,,,,,,,,,,,,,,,,,,,,,,,,,,,,,,,,,,,,,,,,,,,,,,,
269.8608,,,,,,,,CU-MSc-pilot-1-LC,2023-10-19_16h30.06.563,Mental Fatigue Training Session,2020.2.4,Win32,60,,,,,,,,d,1,0.8216,0,1,1,8,1,9,AY,A,Y,cueWrong,d,,,,,,,,,,,,,,,,,,,,,,,,,,,,,,,,,,,,,,,,,,,,,,,,,,,,,,,,,,,,,,,,,,
277.4594,,,,,,,,CU-MSc-pilot-1-LC,2023-10-19_16h30.06.563,Mental Fatigue Training Session,2020.2.4,Win32,60,,,,,,,,k,1,0.3163,0,2,2,4,1,5,AX,A,X,target,k,,,,,,,,,,,,,,,,,,,,,,,,,,,,,,,,,,,,,,,,,,,,,,,,,,,,,,,,,,,,,,,,,,
284.5268,,,,,,,,CU-MSc-pilot-1-LC,2023-10-19_16h30.06.563,Mental Fatigue Training Session,2020.2.4,Win32,60,,,,,,,,d,0,0.4326,0,3,3,1,1,2,AX,A,X,target,k,,,,,,,,,,,,,,,,,,,,,,,,,,,,,,,,,,,,,,,,,,,,,,,,,,,,,,,,,,,,,,,,,,
291.7066,,,,,,,,CU-MSc-pilot-1-LC,2023-10-19_16h30.06.563,Mental Fatigue Training Session,2020.2.4,Win32,60,,,,,,,,k,1,0.644,0,4,4,3,1,4,AX,A,X,target,k,,,,,,,,,,,,,,,,,,,,,,,,,,,,,,,,,,,,,,,,,,,,,,,,,,,,,,,,,,,,,,,,,,
299.0759,,,,,,,,CU-MSc-pilot-1-LC,2023-10-19_16h30.06.563,Mental Fatigue Training Session,2020.2.4,Win32,60,,,,,,,,k,1,0.4332,0,5,5,2,1,3,AX,A,X,target,k,,,,,,,,,,,,,,,,,,,,,,,,,,,,,,,,,,,,,,,,,,,,,,,,,,,,,,,,,,,,,,,,,,
306.2737,,,,,,,,CU-MSc-pilot-1-LC,2023-10-19_16h30.06.563,Mental Fatigue Training Session,2020.2.4,Win32,60,,,,,,,,k,1,0.4734,0,6,6,0,1,1,AX,A,X,target,k,,,,,,,,,,,,,,,,,,,,,,,,,,,,,,,,,,,,,,,,,,,,,,,,,,,,,,,,,,,,,,,,,,
313.4877,,,,,,,,CU-MSc-pilot-1-LC,2023-10-19_16h30.06.563,Mental Fatigue Training Session,2020.2.4,Win32,60,,,,,,,,d,1,0.3424,0,7,7,9,1,10,BY,B,Y,bothWrong,d,,,,,,,,,,,,,,,,,,,,,,,,,,,,,,,,,,,,,,,,,,,,,,,,,,,,,,,,,,,,,,,,,,
320.5769,,,,,,,,CU-MSc-pilot-1-LC,2023-10-19_16h30.06.563,Mental Fatigue Training Session,2020.2.4,Win32,60,,,,,,,,k,1,0.4024,0,8,8,5,1,6,AX,A,X,target,k,,,,,,,,,,,,,,,,,,,,,,,,,,,,,,,,,,,,,,,,,,,,,,,,,,,,,,,,,,,,,,,,,,
327.7594,,,,,,,,CU-MSc-pilot-1-LC,2023-10-19_16h30.06.563,Mental Fatigue Training Session,2020.2.4,Win32,60,,,,,,,,k,1,0.4804,0,9,9,6,1,7,AX,A,X,target,k,,,,,,,,,,,,,,,,,,,,,,,,,,,,,,,,,,,,,,,,,,,,,,,,,,,,,,,,,,,,,,,,,,
335.0118,,,,,,,,CU-MSc-pilot-1-LC,2023-10-19_16h30.06.563,Mental Fatigue Training Session,2020.2.4,Win32,60,,,,,,,,k,1,0.4358,1,0,10,4,1,5,AX,A,X,target,k,,,,,,,,,,,,,,,,,,,,,,,,,,,,,,,,,,,,,,,,,,,,,,,,,,,,,,,,,,,,,,,,,,
342.2014,,,,,,,,CU-MSc-pilot-1-LC,2023-10-19_16h30.06.563,Mental Fatigue Training Session,2020.2.4,Win32,60,,,,,,,,k,1,0.5107,1,1,11,1,1,2,AX,A,X,target,k,,,,,,,,,,,,,,,,,,,,,,,,,,,,,,,,,,,,,,,,,,,,,,,,,,,,,,,,,,,,,,,,,,
349.4613,,,,,,,,CU-MSc-pilot-1-LC,2023-10-19_16h30.06.563,Mental Fatigue Training Session,2020.2.4,Win32,60,,,,,,,,d,1,0.3115,1,2,12,8,1,9,AY,A,Y,cueWrong,d,,,,,,,,,,,,,,,,,,,,,,,,,,,,,,,,,,,,,,,,,,,,,,,,,,,,,,,,,,,,,,,,,,
356.5163,,,,,,,,CU-MSc-pilot-1-LC,2023-10-19_16h30.06.563,Mental Fatigue Training Session,2020.2.4,Win32,60,,,,,,,,k,1,0.4473,1,3,13,6,1,7,AX,A,X,target,k,,,,,,,,,,,,,,,,,,,,,,,,,,,,,,,,,,,,,,,,,,,,,,,,,,,,,,,,,,,,,,,,,,
363.6925,,,,,,,,CU-MSc-pilot-1-LC,2023-10-19_16h30.06.563,Mental Fatigue Training Session,2020.2.4,Win32,60,,,,,,,,k,1,0.411,1,4,14,3,1,4,AX,A,X,target,k,,,,,,,,,,,,,,,,,,,,,,,,,,,,,,,,,,,,,,,,,,,,,,,,,,,,,,,,,,,,,,,,,,
370.8654,,,,,,,,CU-MSc-pilot-1-LC,2023-10-19_16h30.06.563,Mental Fatigue Training Session,2020.2.4,Win32,60,,,,,,,,k,1,0.589,1,5,15,0,1,1,AX,A,X,target,k,,,,,,,,,,,,,,,,,,,,,,,,,,,,,,,,,,,,,,,,,,,,,,,,,,,,,,,,,,,,,,,,,,
378.2084,,,,,,,,CU-MSc-pilot-1-LC,2023-10-19_16h30.06.563,Mental Fatigue Training Session,2020.2.4,Win32,60,,,,,,,,d,1,0.8996,1,6,16,9,1,10,BY,B,Y,bothWrong,d,,,,,,,,,,,,,,,,,,,,,,,,,,,,,,,,,,,,,,,,,,,,,,,,,,,,,,,,,,,,,,,,,,
385.8636,,,,,,,,CU-MSc-pilot-1-LC,2023-10-19_16h30.06.563,Mental Fatigue Training Session,2020.2.4,Win32,60,,,,,,,,k,1,0.7916,1,7,17,5,1,6,AX,A,X,target,k,,,,,,,,,,,,,,,,,,,,,,,,,,,,,,,,,,,,,,,,,,,,,,,,,,,,,,,,,,,,,,,,,,
393.4413,,,,,,,,CU-MSc-pilot-1-LC,2023-10-19_16h30.06.563,Mental Fatigue Training Session,2020.2.4,Win32,60,,,,,,,,d,1,0.5336,1,8,18,7,1,8,BX,B,X,probeWrong,d,,,,,,,,,,,,,,,,,,,,,,,,,,,,,,,,,,,,,,,,,,,,,,,,,,,,,,,,,,,,,,,,,,
400.7428,,,,,,,,CU-MSc-pilot-1-LC,2023-10-19_16h30.06.563,Mental Fatigue Training Session,2020.2.4,Win32,60,,,,,,,,k,1,0.386,1,9,19,2,1,3,AX,A,X,target,k,,,,,,,,,,,,,,,,,,,,,,,,,,,,,,,,,,,,,,,,,,,,,,,,,,,,,,,,,,,,,,,,,,
407.8968,,,,,,,,CU-MSc-pilot-1-LC,2023-10-19_16h30.06.563,Mental Fatigue Training Session,2020.2.4,Win32,60,,,,,,,,k,1,0.5436,2,0,20,1,1,2,AX,A,X,target,k,,,,,,,,,,,,,,,,,,,,,,,,,,,,,,,,,,,,,,,,,,,,,,,,,,,,,,,,,,,,,,,,,,
415.2107,,,,,,,,CU-MSc-pilot-1-LC,2023-10-19_16h30.06.563,Mental Fatigue Training Session,2020.2.4,Win32,60,,,,,,,,k,1,0.4181,2,1,21,0,1,1,AX,A,X,target,k,,,,,,,,,,,,,,,,,,,,,,,,,,,,,,,,,,,,,,,,,,,,,,,,,,,,,,,,,,,,,,,,,,
422.3789,,,,,,,,CU-MSc-pilot-1-LC,2023-10-19_16h30.06.563,Mental Fatigue Training Session,2020.2.4,Win32,60,,,,,,,,d,1,0.4063,2,2,22,7,1,8,BX,B,X,probeWrong,d,,,,,,,,,,,,,,,,,,,,,,,,,,,,,,,,,,,,,,,,,,,,,,,,,,,,,,,,,,,,,,,,,,
429.5404,,,,,,,,CU-MSc-pilot-1-LC,2023-10-19_16h30.06.563,Mental Fatigue Training Session,2020.2.4,Win32,60,,,,,,,,k,1,0.6903,2,3,23,3,1,4,AX,A,X,target,k,,,,,,,,,,,,,,,,,,,,,,,,,,,,,,,,,,,,,,,,,,,,,,,,,,,,,,,,,,,,,,,,,,
437.011,,,,,,,,CU-MSc-pilot-1-LC,2023-10-19_16h30.06.563,Mental Fatigue Training Session,2020.2.4,Win32,60,,,,,,,,d,1,0.7444,2,4,24,8,1,9,AY,A,Y,cueWrong,d,,,,,,,,,,,,,,,,,,,,,,,,,,,,,,,,,,,,,,,,,,,,,,,,,,,,,,,,,,,,,,,,,,
444.4986,,,,,,,,CU-MSc-pilot-1-LC,2023-10-19_16h30.06.563,Mental Fatigue Training Session,2020.2.4,Win32,60,,,,,,,,k,1,0.3168,2,5,25,6,1,7,AX,A,X,target,k,,,,,,,,,,,,,,,,,,,,,,,,,,,,,,,,,,,,,,,,,,,,,,,,,,,,,,,,,,,,,,,,,,
451.5773,,,,,,,,CU-MSc-pilot-1-LC,2023-10-19_16h30.06.563,Mental Fatigue Training Session,2020.2.4,Win32,60,,,,,,,,k,1,0.4101,2,6,26,2,1,3,AX,A,X,target,k,,,,,,,,,,,,,,,,,,,,,,,,,,,,,,,,,,,,,,,,,,,,,,,,,,,,,,,,,,,,,,,,,,
458.7316,,,,,,,,CU-MSc-pilot-1-LC,2023-10-19_16h30.06.563,Mental Fatigue Training Session,2020.2.4,Win32,60,,,,,,,,k,1,0.4024,2,7,27,5,1,6,AX,A,X,target,k,,,,,,,,,,,,,,,,,,,,,,,,,,,,,,,,,,,,,,,,,,,,,,,,,,,,,,,,,,,,,,,,,,
465.8706,,,,,,,,CU-MSc-pilot-1-LC,2023-10-19_16h30.06.563,Mental Fatigue Training Session,2020.2.4,Win32,60,,,,,,,,k,1,0.364,2,8,28,4,1,5,AX,A,X,target,k,,,,,,,,,,,,,,,,,,,,,,,,,,,,,,,,,,,,,,,,,,,,,,,,,,,,,,,,,,,,,,,,,,
473.0107,,,,,,,,CU-MSc-pilot-1-LC,2023-10-19_16h30.06.563,Mental Fatigue Training Session,2020.2.4,Win32,60,,,,,,,,d,1,0.3436,2,9,29,9,1,10,BY,B,Y,bothWrong,d,,,,,,,,,,,,,,,,,,,,,,,,,,,,,,,,,,,,,,,,,,,,,,,,,,,,,,,,,,,,,,,,,,
480.1169,,,,,,,,CU-MSc-pilot-1-LC,2023-10-19_16h30.06.563,Mental Fatigue Training Session,2020.2.4,Win32,60,,,,,,,,k,1,0.3162,3,0,30,2,1,3,AX,A,X,target,k,,,,,,,,,,,,,,,,,,,,,,,,,,,,,,,,,,,,,,,,,,,,,,,,,,,,,,,,,,,,,,,,,,
487.2055,,,,,,,,CU-MSc-pilot-1-LC,2023-10-19_16h30.06.563,Mental Fatigue Training Session,2020.2.4,Win32,60,,,,,,,,k,1,0.3505,3,1,31,1,1,2,AX,A,X,target,k,,,,,,,,,,,,,,,,,,,,,,,,,,,,,,,,,,,,,,,,,,,,,,,,,,,,,,,,,,,,,,,,,,
494.3021,,,,,,,,CU-MSc-pilot-1-LC,2023-10-19_16h30.06.563,Mental Fatigue Training Session,2020.2.4,Win32,60,,,,,,,,k,1,0.4709,3,2,32,6,1,7,AX,A,X,target,k,,,,,,,,,,,,,,,,,,,,,,,,,,,,,,,,,,,,,,,,,,,,,,,,,,,,,,,,,,,,,,,,,,
501.5238,,,,,,,,CU-MSc-pilot-1-LC,2023-10-19_16h30.06.563,Mental Fatigue Training Session,2020.2.4,Win32,60,,,,,,,,d,1,0.7235,3,3,33,9,1,10,BY,B,Y,bothWrong,d,,,,,,,,,,,,,,,,,,,,,,,,,,,,,,,,,,,,,,,,,,,,,,,,,,,,,,,,,,,,,,,,,,
509.0061,,,,,,,,CU-MSc-pilot-1-LC,2023-10-19_16h30.06.563,Mental Fatigue Training Session,2020.2.4,Win32,60,,,,,,,,k,1,0.3656,3,4,34,3,1,4,AX,A,X,target,k,,,,,,,,,,,,,,,,,,,,,,,,,,,,,,,,,,,,,,,,,,,,,,,,,,,,,,,,,,,,,,,,,,
516.1289,,,,,,,,CU-MSc-pilot-1-LC,2023-10-19_16h30.06.563,Mental Fatigue Training Session,2020.2.4,Win32,60,,,,,,,,k,1,0.3946,3,5,35,4,1,5,AX,A,X,target,k,,,,,,,,,,,,,,,,,,,,,,,,,,,,,,,,,,,,,,,,,,,,,,,,,,,,,,,,,,,,,,,,,,
523.2503,,,,,,,,CU-MSc-pilot-1-LC,2023-10-19_16h30.06.563,Mental Fatigue Training Session,2020.2.4,Win32,60,,,,,,,,k,1,0.401,3,6,36,0,1,1,AX,A,X,target,k,,,,,,,,,,,,,,,,,,,,,,,,,,,,,,,,,,,,,,,,,,,,,,,,,,,,,,,,,,,,,,,,,,
530.402,,,,,,,,CU-MSc-pilot-1-LC,2023-10-19_16h30.06.563,Mental Fatigue Training Session,2020.2.4,Win32,60,,,,,,,,d,1,0.7895,3,7,37,8,1,9,AY,A,Y,cueWrong,d,,,,,,,,,,,,,,,,,,,,,,,,,,,,,,,,,,,,,,,,,,,,,,,,,,,,,,,,,,,,,,,,,,
537.9438,,,,,,,,CU-MSc-pilot-1-LC,2023-10-19_16h30.06.563,Mental Fatigue Training Session,2020.2.4,Win32,60,,,,,,,,k,1,0.2692,3,8,38,5,1,6,AX,A,X,target,k,,,,,,,,,,,,,,,,,,,,,,,,,,,,,,,,,,,,,,,,,,,,,,,,,,,,,,,,,,,,,,,,,,
544.9794,,,,,,,,CU-MSc-pilot-1-LC,2023-10-19_16h30.06.563,Mental Fatigue Training Session,2020.2.4,Win32,60,,,,,,,,d,1,0.7243,3,9,39,7,1,8,BX,B,X,probeWrong,d,,,,,,,,,,,,,,,,,,,,,,,,,,,,,,,,,,,,,,,,,,,,,,,,,,,,,,,,,,,,,,,,,,
552.4861,,,,,,,,CU-MSc-pilot-1-LC,2023-10-19_16h30.06.563,Mental Fatigue Training Session,2020.2.4,Win32,60,,,,,,,,k,1,0.4079,4,0,40,4,1,5,AX,A,X,target,k,,,,,,,,,,,,,,,,,,,,,,,,,,,,,,,,,,,,,,,,,,,,,,,,,,,,,,,,,,,,,,,,,,
559.6315,,,,,,,,CU-MSc-pilot-1-LC,2023-10-19_16h30.06.563,Mental Fatigue Training Session,2020.2.4,Win32,60,,,,,,,,k,1,0.2723,4,1,41,1,1,2,AX,A,X,target,k,,,,,,,,,,,,,,,,,,,,,,,,,,,,,,,,,,,,,,,,,,,,,,,,,,,,,,,,,,,,,,,,,,
566.6719,,,,,,,,CU-MSc-pilot-1-LC,2023-10-19_16h30.06.563,Mental Fatigue Training Session,2020.2.4,Win32,60,,,,,,,,k,1,0.4851,4,2,42,3,1,4,AX,A,X,target,k,,,,,,,,,,,,,,,,,,,,,,,,,,,,,,,,,,,,,,,,,,,,,,,,,,,,,,,,,,,,,,,,,,
601.1204,,,,,,,,CU-MSc-pilot-1-LC,2023-10-19_16h30.06.563,Mental Fatigue Training Session,2020.2.4,Win32,60,,,,,,,,,,,,,,,,,,,,,,9.5,right,9.4754,right,18.8499,0,0,0,0,1,,,,,,,,,,,,,,,,,,,,,,,,,,,,,,,,,,,,,,,,,,,,,,,,,,,,,,,,
636.7738,,,,,,,,CU-MSc-pilot-1-LC,2023-10-19_16h30.06.563,Mental Fatigue Training Session,2020.2.4,Win32,60,,,,,,,,,,,,,,,,,,,,,,,,,right,35.6335,1,0,1,0,1,,,,,,,,,,,,,,,,,,,,,,,,,,,,,,,,,,,,,,,,,,,,,,,,,,,,,,,,
642.2384,,,,,,,,CU-MSc-pilot-1-LC,2023-10-19_16h30.06.563,Mental Fatigue Training Session,2020.2.4,Win32,60,,,,,,,,,,,,,,,,,,,,,,,,,right,5.4424,2,0,2,0,1,,,,,,,,,,,,,,,,,,,,,,,,,,,,,,,,,,,,,,,,,,,,,,,,,,,,,,,,
644.571,,,,,,,,CU-MSc-pilot-1-LC,2023-10-19_16h30.06.563,Mental Fatigue Training Session,2020.2.4,Win32,60,,,,,,,,,,,,,,,,,,,,,,,,,k,2.3183,3,0,3,0,1,,,,,,,,,,,,,,,,,,,,,,,,,,,,,,,,,,,,,,,,,,,,,,,,,,,,,,,,
645.7701,,,,,,,,CU-MSc-pilot-1-LC,2023-10-19_16h30.06.563,Mental Fatigue Training Session,2020.2.4,Win32,60,,,,,,,,,,,,,,,,,,,,,,,,,,,,,,,,,0,0,0,0,1,,,,,,,,,,,,,,,,,,,,,,,,,,,,,,,,,,,,,,,,,,,,,,,,,,
648.9691,,,,,,,,CU-MSc-pilot-1-LC,2023-10-19_16h30.06.563,Mental Fatigue Training Session,2020.2.4,Win32,60,,,,,,,,,,,,,,,,,,,,,,,,,,,,,,,,,1,0,1,0,1,,,,,,,,,,,,,,,,,,,,,,,,,,,,,,,,,,,,,,,,,,,,,,,,,,
652.1685,,,,,,,,CU-MSc-pilot-1-LC,2023-10-19_16h30.06.563,Mental Fatigue Training Session,2020.2.4,Win32,60,,,,,,,,,,,,,,,,,,,,,,,,,,,,,,,,,2,0,2,0,1,,,,,,,,,,,,,,,,,,,,,,,,,,,,,,,,,,,,,,,,,,,,,,,,,,
655.3994,,,,,,,,CU-MSc-pilot-1-LC,2023-10-19_16h30.06.563,Mental Fatigue Training Session,2020.2.4,Win32,60,,,,,,,,,,,,,,,,,8,,,nonTarget,d,,,,,,,,,,,,,,,,,,0,0,0,0,7,1,,,,,,,,,,,,,,,,,,,,,,,,,,,,,,,,,,,,,,,,,,,
659.5939,,,,,,,,CU-MSc-pilot-1-LC,2023-10-19_16h30.06.563,Mental Fatigue Training Session,2020.2.4,Win32,60,,,,,,,,,,,,,,,,,1,,,target,k,,,,,,,,,,,,,,,,,k,1,0,1,1,0,1,1.5265,,,,,,,,,,,,,,,,,,,,,,,,,,,,,,,,,,,,,,,,,,
663.3941,,,,,,,,CU-MSc-pilot-1-LC,2023-10-19_16h30.06.563,Mental Fatigue Training Session,2020.2.4,Win32,60,,,,,,,,,,,,,,,,,3,,,target,k,,,,,,,,,,,,,,,,,k,1,0,2,2,2,1,0.6647,,,,,,,,,,,,,,,,,,,,,,,,,,,,,,,,,,,,,,,,,,
666.3102,,,,,,,,CU-MSc-pilot-1-LC,2023-10-19_16h30.06.563,Mental Fatigue Training Session,2020.2.4,Win32,60,,,,,,,,,,,,,,,,,10,,,nonTarget,d,,,,,,,,,,,,,,,,,d,1,0,3,3,9,1,0.7824,,,,,,,,,,,,,,,,,,,,,,,,,,,,,,,,,,,,,,,,,,
669.3587,,,,,,,,CU-MSc-pilot-1-LC,2023-10-19_16h30.06.563,Mental Fatigue Training Session,2020.2.4,Win32,60,,,,,,,,,,,,,,,,,2,,,target,k,,,,,,,,,,,,,,,,,k,1,0,4,4,1,1,1.7295,,,,,,,,,,,,,,,,,,,,,,,,,,,,,,,,,,,,,,,,,,
673.3406,,,,,,,,CU-MSc-pilot-1-LC,2023-10-19_16h30.06.563,Mental Fatigue Training Session,2020.2.4,Win32,60,,,,,,,,,,,,,,,,,9,,,nonTarget,d,,,,,,,,,,,,,,,,,d,1,0,5,5,8,1,1.1998,,,,,,,,,,,,,,,,,,,,,,,,,,,,,,,,,,,,,,,,,,
676.8065,,,,,,,,CU-MSc-pilot-1-LC,2023-10-19_16h30.06.563,Mental Fatigue Training Session,2020.2.4,Win32,60,,,,,,,,,,,,,,,,,7,,,nonTarget,d,,,,,,,,,,,,,,,,,d,1,0,6,6,6,1,1.7698,,,,,,,,,,,,,,,,,,,,,,,,,,,,,,,,,,,,,,,,,,
680.8303,,,,,,,,CU-MSc-pilot-1-LC,2023-10-19_16h30.06.563,Mental Fatigue Training Session,2020.2.4,Win32,60,,,,,,,,,,,,,,,,,4,,,nonTarget,d,,,,,,,,,,,,,,,,,d,1,0,7,7,3,1,1.1853,,,,,,,,,,,,,,,,,,,,,,,,,,,,,,,,,,,,,,,,,,
684.2626,,,,,,,,CU-MSc-pilot-1-LC,2023-10-19_16h30.06.563,Mental Fatigue Training Session,2020.2.4,Win32,60,,,,,,,,,,,,,,,,,5,,,nonTarget,d,,,,,,,,,,,,,,,,,d,1,0,8,8,4,1,0.9505,,,,,,,,,,,,,,,,,,,,,,,,,,,,,,,,,,,,,,,,,,
687.4438,,,,,,,,CU-MSc-pilot-1-LC,2023-10-19_16h30.06.563,Mental Fatigue Training Session,2020.2.4,Win32,60,,,,,,,,,,,,,,,,,6,,,nonTarget,d,,,,,,,,,,,,,,,,,d,1,0,9,9,5,1,0.7815,,,,,,,,,,,,,,,,,,,,,,,,,,,,,,,,,,,,,,,,,,
690.4668,,,,,,,,CU-MSc-pilot-1-LC,2023-10-19_16h30.06.563,Mental Fatigue Training Session,2020.2.4,Win32,60,,,,,,,,,,,,,,,,,2,,,target,k,,,,,,,,,,,,,,,,,d,0,1,0,10,1,1,1.6805,,,,,,,,,,,,,,,,,,,,,,,,,,,,,,,,,,,,,,,,,,
694.4001,,,,,,,,CU-MSc-pilot-1-LC,2023-10-19_16h30.06.563,Mental Fatigue Training Session,2020.2.4,Win32,60,,,,,,,,,,,,,,,,,1,,,target,k,,,,,,,,,,,,,,,,,d,0,1,1,11,0,1,1.6183,,,,,,,,,,,,,,,,,,,,,,,,,,,,,,,,,,,,,,,,,,
698.2789,,,,,,,,CU-MSc-pilot-1-LC,2023-10-19_16h30.06.563,Mental Fatigue Training Session,2020.2.4,Win32,60,,,,,,,,,,,,,,,,,9,,,nonTarget,d,,,,,,,,,,,,,,,,,k,0,1,2,12,8,1,0.6804,,,,,,,,,,,,,,,,,,,,,,,,,,,,,,,,,,,,,,,,,,
701.2152,,,,,,,,CU-MSc-pilot-1-LC,2023-10-19_16h30.06.563,Mental Fatigue Training Session,2020.2.4,Win32,60,,,,,,,,,,,,,,,,,10,,,nonTarget,d,,,,,,,,,,,,,,,,,d,1,1,3,13,9,1,0.2602,,,,,,,,,,,,,,,,,,,,,,,,,,,,,,,,,,,,,,,,,,
703.7318,,,,,,,,CU-MSc-pilot-1-LC,2023-10-19_16h30.06.563,Mental Fatigue Training Session,2020.2.4,Win32,60,,,,,,,,,,,,,,,,,8,,,nonTarget,d,,,,,,,,,,,,,,,,,k,0,1,4,14,7,1,1.5591,,,,,,,,,,,,,,,,,,,,,,,,,,,,,,,,,,,,,,,,,,
707.5539,,,,,,,,CU-MSc-pilot-1-LC,2023-10-19_16h30.06.563,Mental Fatigue Training Session,2020.2.4,Win32,60,,,,,,,,,,,,,,,,,5,,,nonTarget,d,,,,,,,,,,,,,,,,,d,1,1,5,15,4,1,1.9441,,,,,,,,,,,,,,,,,,,,,,,,,,,,,,,,,,,,,,,,,,
711.743,,,,,,,,CU-MSc-pilot-1-LC,2023-10-19_16h30.06.563,Mental Fatigue Training Session,2020.2.4,Win32,60,,,,,,,,,,,,,,,,,4,,,nonTarget,d,,,,,,,,,,,,,,,,,,0,1,6,16,3,1,,,,,,,,,,,,,,,,,,,,,,,,,,,,,,,,,,,,,,,,,,,
715.9347,,,,,,,,CU-MSc-pilot-1-LC,2023-10-19_16h30.06.563,Mental Fatigue Training Session,2020.2.4,Win32,60,,,,,,,,,,,,,,,,,7,,,nonTarget,d,,,,,,,,,,,,,,,,,,0,1,7,17,6,1,,,,,,,,,,,,,,,,,,,,,,,,,,,,,,,,,,,,,,,,,,,
720.1414,,,,,,,,CU-MSc-pilot-1-LC,2023-10-19_16h30.06.563,Mental Fatigue Training Session,2020.2.4,Win32,60,,,,,,,,,,,,,,,,,3,,,target,k,,,,,,,,,,,,,,,,,,0,1,8,18,2,1,,,,,,,,,,,,,,,,,,,,,,,,,,,,,,,,,,,,,,,,,,,
724.34,,,,,,,,CU-MSc-pilot-1-LC,2023-10-19_16h30.06.563,Mental Fatigue Training Session,2020.2.4,Win32,60,,,,,,,,,,,,,,,,,6,,,nonTarget,d,,,,,,,,,,,,,,,,,,0,1,9,19,5,1,,,,,,,,,,,,,,,,,,,,,,,,,,,,,,,,,,,,,,,,,,,
728.5552,,,,,,,,CU-MSc-pilot-1-LC,2023-10-19_16h30.06.563,Mental Fatigue Training Session,2020.2.4,Win32,60,,,,,,,,,,,,,,,,,5,,,nonTarget,d,,,,,,,,,,,,,,,,,,0,2,0,20,4,1,,,,,,,,,,,,,,,,,,,,,,,,,,,,,,,,,,,,,,,,,,,
732.7462,,,,,,,,CU-MSc-pilot-1-LC,2023-10-19_16h30.06.563,Mental Fatigue Training Session,2020.2.4,Win32,60,,,,,,,,,,,,,,,,,6,,,nonTarget,d,,,,,,,,,,,,,,,,,,0,2,1,21,5,1,,,,,,,,,,,,,,,,,,,,,,,,,,,,,,,,,,,,,,,,,,,
736.9511,,,,,,,,CU-MSc-pilot-1-LC,2023-10-19_16h30.06.563,Mental Fatigue Training Session,2020.2.4,Win32,60,,,,,,,,,,,,,,,,,3,,,target,k,,,,,,,,,,,,,,,,,k,1,2,2,22,2,1,0.8835,,,,,,,,,,,,,,,,,,,,,,,,,,,,,,,,,,,,,,,,,,
740.101,,,,,,,,CU-MSc-pilot-1-LC,2023-10-19_16h30.06.563,Mental Fatigue Training Session,2020.2.4,Win32,60,,,,,,,,,,,,,,,,,9,,,nonTarget,d,,,,,,,,,,,,,,,,,d,1,2,3,23,8,1,1.0351,,,,,,,,,,,,,,,,,,,,,,,,,,,,,,,,,,,,,,,,,,
743.4006,,,,,,,,CU-MSc-pilot-1-LC,2023-10-19_16h30.06.563,Mental Fatigue Training Session,2020.2.4,Win32,60,,,,,,,,,,,,,,,,,7,,,nonTarget,d,,,,,,,,,,,,,,,,,k,0,2,4,24,6,1,0.4481,,,,,,,,,,,,,,,,,,,,,,,,,,,,,,,,,,,,,,,,,,
746.0978,,,,,,,,CU-MSc-pilot-1-LC,2023-10-19_16h30.06.563,Mental Fatigue Training Session,2020.2.4,Win32,60,,,,,,,,,,,,,,,,,8,,,nonTarget,d,,,,,,,,,,,,,,,,,k,0,2,5,25,7,1,0.4422,,,,,,,,,,,,,,,,,,,,,,,,,,,,,,,,,,,,,,,,,,
748.7987,,,,,,,,CU-MSc-pilot-1-LC,2023-10-19_16h30.06.563,Mental Fatigue Training Session,2020.2.4,Win32,60,,,,,,,,,,,,,,,,,4,,,nonTarget,d,,,,,,,,,,,,,,,,,k,0,2,6,26,3,1,1.0052,,,,,,,,,,,,,,,,,,,,,,,,,,,,,,,,,,,,,,,,,,
752.0678,,,,,,,,CU-MSc-pilot-1-LC,2023-10-19_16h30.06.563,Mental Fatigue Training Session,2020.2.4,Win32,60,,,,,,,,,,,,,,,,,10,,,nonTarget,d,,,,,,,,,,,,,,,,,d,1,2,7,27,9,1,0.6047,,,,,,,,,,,,,,,,,,,,,,,,,,,,,,,,,,,,,,,,,,
754.9298,,,,,,,,CU-MSc-pilot-1-LC,2023-10-19_16h30.06.563,Mental Fatigue Training Session,2020.2.4,Win32,60,,,,,,,,,,,,,,,,,2,,,target,k,,,,,,,,,,,,,,,,,k,1,2,8,28,1,1,1.6425,,,,,,,,,,,,,,,,,,,,,,,,,,,,,,,,,,,,,,,,,,
758.8437,,,,,,,,CU-MSc-pilot-1-LC,2023-10-19_16h30.06.563,Mental Fatigue Training Session,2020.2.4,Win32,60,,,,,,,,,,,,,,,,,1,,,target,k,,,,,,,,,,,,,,,,,d,0,2,9,29,0,1,1.8228,,,,,,,,,,,,,,,,,,,,,,,,,,,,,,,,,,,,,,,,,,
762.919,,,,,,,,CU-MSc-pilot-1-LC,2023-10-19_16h30.06.563,Mental Fatigue Training Session,2020.2.4,Win32,60,,,,,,,,,,,,,,,,,8,,,nonTarget,d,,,,,,,,,,,,,,,,,d,1,3,0,30,7,1,1.161,,,,,,,,,,,,,,,,,,,,,,,,,,,,,,,,,,,,,,,,,,
766.324,,,,,,,,CU-MSc-pilot-1-LC,2023-10-19_16h30.06.563,Mental Fatigue Training Session,2020.2.4,Win32,60,,,,,,,,,,,,,,,,,5,,,nonTarget,d,,,,,,,,,,,,,,,,,d,1,3,1,31,4,1,1.131,,,,,,,,,,,,,,,,,,,,,,,,,,,,,,,,,,,,,,,,,,
769.7234,,,,,,,,CU-MSc-pilot-1-LC,2023-10-19_16h30.06.563,Mental Fatigue Training Session,2020.2.4,Win32,60,,,,,,,,,,,,,,,,,6,,,nonTarget,d,,,,,,,,,,,,,,,,,d,1,3,2,32,5,1,1.6121,,,,,,,,,,,,,,,,,,,,,,,,,,,,,,,,,,,,,,,,,,
773.5826,,,,,,,,CU-MSc-pilot-1-LC,2023-10-19_16h30.06.563,Mental Fatigue Training Session,2020.2.4,Win32,60,,,,,,,,,,,,,,,,,9,,,nonTarget,d,,,,,,,,,,,,,,,,,d,1,3,3,33,8,1,1.1723,,,,,,,,,,,,,,,,,,,,,,,,,,,,,,,,,,,,,,,,,,
777.0048,,,,,,,,CU-MSc-pilot-1-LC,2023-10-19_16h30.06.563,Mental Fatigue Training Session,2020.2.4,Win32,60,,,,,,,,,,,,,,,,,3,,,target,k,,,,,,,,,,,,,,,,,k,1,3,4,34,2,1,1.4363,,,,,,,,,,,,,,,,,,,,,,,,,,,,,,,,,,,,,,,,,,
780.6982,,,,,,,,CU-MSc-pilot-1-LC,2023-10-19_16h30.06.563,Mental Fatigue Training Session,2020.2.4,Win32,60,,,,,,,,,,,,,,,,,2,,,target,k,,,,,,,,,,,,,,,,,k,1,3,5,35,1,1,1.3737,,,,,,,,,,,,,,,,,,,,,,,,,,,,,,,,,,,,,,,,,,
784.318,,,,,,,,CU-MSc-pilot-1-LC,2023-10-19_16h30.06.563,Mental Fatigue Training Session,2020.2.4,Win32,60,,,,,,,,,,,,,,,,,4,,,nonTarget,d,,,,,,,,,,,,,,,,,d,1,3,6,36,3,1,1.8055,,,,,,,,,,,,,,,,,,,,,,,,,,,,,,,,,,,,,,,,,,
788.3776,,,,,,,,CU-MSc-pilot-1-LC,2023-10-19_16h30.06.563,Mental Fatigue Training Session,2020.2.4,Win32,60,,,,,,,,,,,,,,,,,10,,,nonTarget,d,,,,,,,,,,,,,,,,,d,1,3,7,37,9,1,1.2747,,,,,,,,,,,,,,,,,,,,,,,,,,,,,,,,,,,,,,,,,,
791.8941,,,,,,,,CU-MSc-pilot-1-LC,2023-10-19_16h30.06.563,Mental Fatigue Training Session,2020.2.4,Win32,60,,,,,,,,,,,,,,,,,7,,,nonTarget,d,,,,,,,,,,,,,,,,,d,1,3,8,38,6,1,1.1014,,,,,,,,,,,,,,,,,,,,,,,,,,,,,,,,,,,,,,,,,,
795.2504,,,,,,,,CU-MSc-pilot-1-LC,2023-10-19_16h30.06.563,Mental Fatigue Training Session,2020.2.4,Win32,60,,,,,,,,,,,,,,,,,1,,,target,k,,,,,,,,,,,,,,,,,k,1,3,9,39,0,1,1.7055,,,,,,,,,,,,,,,,,,,,,,,,,,,,,,,,,,,,,,,,,,
799.2144,,,,,,,,CU-MSc-pilot-1-LC,2023-10-19_16h30.06.563,Mental Fatigue Training Session,2020.2.4,Win32,60,,,,,,,,,,,,,,,,,4,,,nonTarget,d,,,,,,,,,,,,,,,,,d,1,4,0,40,3,1,1.3459,,,,,,,,,,,,,,,,,,,,,,,,,,,,,,,,,,,,,,,,,,
802.8111,,,,,,,,CU-MSc-pilot-1-LC,2023-10-19_16h30.06.563,Mental Fatigue Training Session,2020.2.4,Win32,60,,,,,,,,,,,,,,,,,9,,,nonTarget,d,,,,,,,,,,,,,,,,,d,1,4,1,41,8,1,1.2825,,,,,,,,,,,,,,,,,,,,,,,,,,,,,,,,,,,,,,,,,,
806.343,,,,,,,,CU-MSc-pilot-1-LC,2023-10-19_16h30.06.563,Mental Fatigue Training Session,2020.2.4,Win32,60,,,,,,,,,,,,,,,,,10,,,nonTarget,d,,,,,,,,,,,,,,,,,k,0,4,2,42,9,1,0.758,,,,,,,,,,,,,,,,,,,,,,,,,,,,,,,,,,,,,,,,,,
809.3565,,,,,,,,CU-MSc-pilot-1-LC,2023-10-19_16h30.06.563,Mental Fatigue Training Session,2020.2.4,Win32,60,,,,,,,,,,,,,,,,,1,,,target,k,,,,,,,,,,,,,,,,,k,1,4,3,43,0,1,0.9128,,,,,,,,,,,,,,,,,,,,,,,,,,,,,,,,,,,,,,,,,,
812.5247,,,,,,,,CU-MSc-pilot-1-LC,2023-10-19_16h30.06.563,Mental Fatigue Training Session,2020.2.4,Win32,60,,,,,,,,,,,,,,,,,3,,,target,k,,,,,,,,,,,,,,,,,k,1,4,4,44,2,1,1.7965,,,,,,,,,,,,,,,,,,,,,,,,,,,,,,,,,,,,,,,,,,
816.5725,,,,,,,,CU-MSc-pilot-1-LC,2023-10-19_16h30.06.563,Mental Fatigue Training Session,2020.2.4,Win32,60,,,,,,,,,,,,,,,,,8,,,nonTarget,d,,,,,,,,,,,,,,,,,k,0,4,5,45,7,1,0.9004,,,,,,,,,,,,,,,,,,,,,,,,,,,,,,,,,,,,,,,,,,
819.7183,,,,,,,,CU-MSc-pilot-1-LC,2023-10-19_16h30.06.563,Mental Fatigue Training Session,2020.2.4,Win32,60,,,,,,,,,,,,,,,,,7,,,nonTarget,d,,,,,,,,,,,,,,,,,d,1,4,6,46,6,1,1.9158,,,,,,,,,,,,,,,,,,,,,,,,,,,,,,,,,,,,,,,,,,
823.887,,,,,,,,CU-MSc-pilot-1-LC,2023-10-19_16h30.06.563,Mental Fatigue Training Session,2020.2.4,Win32,60,,,,,,,,,,,,,,,,,6,,,nonTarget,d,,,,,,,,,,,,,,,,,d,1,4,7,47,5,1,0.9926,,,,,,,,,,,,,,,,,,,,,,,,,,,,,,,,,,,,,,,,,,
827.1212,,,,,,,,CU-MSc-pilot-1-LC,2023-10-19_16h30.06.563,Mental Fatigue Training Session,2020.2.4,Win32,60,,,,,,,,,,,,,,,,,2,,,target,k,,,,,,,,,,,,,,,,,k,1,4,8,48,1,1,0.814,,,,,,,,,,,,,,,,,,,,,,,,,,,,,,,,,,,,,,,,,,
830.2034,,,,,,,,CU-MSc-pilot-1-LC,2023-10-19_16h30.06.563,Mental Fatigue Training Session,2020.2.4,Win32,60,,,,,,,,,,,,,,,,,5,,,nonTarget,d,,,,,,,,,,,,,,,,,d,1,4,9,49,4,1,0.8957,,,,,,,,,,,,,,,,,,,,,,,,,,,,,,,,,,,,,,,,,,
833.3495,,,,,,,,CU-MSc-pilot-1-LC,2023-10-19_16h30.06.563,Mental Fatigue Training Session,2020.2.4,Win32,60,,,,,,,,,,,,,,,,,8,,,nonTarget,d,,,,,,,,,,,,,,,,,d,1,5,0,50,7,1,1.7686,,,,,,,,,,,,,,,,,,,,,,,,,,,,,,,,,,,,,,,,,,
837.3599,,,,,,,,CU-MSc-pilot-1-LC,2023-10-19_16h30.06.563,Mental Fatigue Training Session,2020.2.4,Win32,60,,,,,,,,,,,,,,,,,9,,,nonTarget,d,,,,,,,,,,,,,,,,,d,1,5,1,51,8,1,1.14,,,,,,,,,,,,,,,,,,,,,,,,,,,,,,,,,,,,,,,,,,
840.7439,,,,,,,,CU-MSc-pilot-1-LC,2023-10-19_16h30.06.563,Mental Fatigue Training Session,2020.2.4,Win32,60,,,,,,,,,,,,,,,,,2,,,target,k,,,,,,,,,,,,,,,,,d,0,5,2,52,1,1,1.5193,,,,,,,,,,,,,,,,,,,,,,,,,,,,,,,,,,,,,,,,,,
844.512,,,,,,,,CU-MSc-pilot-1-LC,2023-10-19_16h30.06.563,Mental Fatigue Training Session,2020.2.4,Win32,60,,,,,,,,,,,,,,,,,6,,,nonTarget,d,,,,,,,,,,,,,,,,,k,0,5,3,53,5,1,0.9626,,,,,,,,,,,,,,,,,,,,,,,,,,,,,,,,,,,,,,,,,,
847.7225,,,,,,,,CU-MSc-pilot-1-LC,2023-10-19_16h30.06.563,Mental Fatigue Training Session,2020.2.4,Win32,60,,,,,,,,,,,,,,,,,3,,,target,k,,,,,,,,,,,,,,,,,k,1,5,4,54,2,1,0.9613,,,,,,,,,,,,,,,,,,,,,,,,,,,,,,,,,,,,,,,,,,
850.9278,,,,,,,,CU-MSc-pilot-1-LC,2023-10-19_16h30.06.563,Mental Fatigue Training Session,2020.2.4,Win32,60,,,,,,,,,,,,,,,,,10,,,nonTarget,d,,,,,,,,,,,,,,,,,d,1,5,5,55,9,1,1.0943,,,,,,,,,,,,,,,,,,,,,,,,,,,,,,,,,,,,,,,,,,
854.2786,,,,,,,,CU-MSc-pilot-1-LC,2023-10-19_16h30.06.563,Mental Fatigue Training Session,2020.2.4,Win32,60,,,,,,,,,,,,,,,,,7,,,nonTarget,d,,,,,,,,,,,,,,,,,d,1,5,6,56,6,1,1.4054,,,,,,,,,,,,,,,,,,,,,,,,,,,,,,,,,,,,,,,,,,
857.9451,,,,,,,,CU-MSc-pilot-1-LC,2023-10-19_16h30.06.563,Mental Fatigue Training Session,2020.2.4,Win32,60,,,,,,,,,,,,,,,,,1,,,target,k,,,,,,,,,,,,,,,,,d,0,5,7,57,0,1,0.9735,,,,,,,,,,,,,,,,,,,,,,,,,,,,,,,,,,,,,,,,,,
861.1703,,,,,,,,CU-MSc-pilot-1-LC,2023-10-19_16h30.06.563,Mental Fatigue Training Session,2020.2.4,Win32,60,,,,,,,,,,,,,,,,,4,,,nonTarget,d,,,,,,,,,,,,,,,,,,0,5,8,58,3,1,,,,,,,,,,,,,,,,,,,,,,,,,,,,,,,,,,,,,,,,,,,
865.3548,,,,,,,,CU-MSc-pilot-1-LC,2023-10-19_16h30.06.563,Mental Fatigue Training Session,2020.2.4,Win32,60,,,,,,,,,,,,,,,,,5,,,nonTarget,d,,,,,,,,,,,,,,,,,d,1,5,9,59,4,1,1.4788,,,,,,,,,,,,,,,,,,,,,,,,,,,,,,,,,,,,,,,,,,
869.0915,,,,,,,,CU-MSc-pilot-1-LC,2023-10-19_16h30.06.563,Mental Fatigue Training Session,2020.2.4,Win32,60,,,,,,,,,,,,,,,,,1,,,target,k,,,,,,,,,,,,,,,,,k,1,6,0,60,0,1,1.5177,,,,,,,,,,,,,,,,,,,,,,,,,,,,,,,,,,,,,,,,,,
872.8643,,,,,,,,CU-MSc-pilot-1-LC,2023-10-19_16h30.06.563,Mental Fatigue Training Session,2020.2.4,Win32,60,,,,,,,,,,,,,,,,,4,,,nonTarget,d,,,,,,,,,,,,,,,,,d,1,6,1,61,3,1,1.0185,,,,,,,,,,,,,,,,,,,,,,,,,,,,,,,,,,,,,,,,,,
876.113,,,,,,,,CU-MSc-pilot-1-LC,2023-10-19_16h30.06.563,Mental Fatigue Training Session,2020.2.4,Win32,60,,,,,,,,,,,,,,,,,3,,,target,k,,,,,,,,,,,,,,,,,k,1,6,2,62,2,1,0.6015,,,,,,,,,,,,,,,,,,,,,,,,,,,,,,,,,,,,,,,,,,
878.9535,,,,,,,,CU-MSc-pilot-1-LC,2023-10-19_16h30.06.563,Mental Fatigue Training Session,2020.2.4,Win32,60,,,,,,,,,,,,,,,,,9,,,nonTarget,d,,,,,,,,,,,,,,,,,d,1,6,3,63,8,1,1.1399,,,,,,,,,,,,,,,,,,,,,,,,,,,,,,,,,,,,,,,,,,
882.3519,,,,,,,,CU-MSc-pilot-1-LC,2023-10-19_16h30.06.563,Mental Fatigue Training Session,2020.2.4,Win32,60,,,,,,,,,,,,,,,,,10,,,nonTarget,d,,,,,,,,,,,,,,,,,d,1,6,4,64,9,1,1.4819,,,,,,,,,,,,,,,,,,,,,,,,,,,,,,,,,,,,,,,,,,
921.4623,,,,,,,,CU-MSc-pilot-1-LC,2023-10-19_16h30.06.563,Mental Fatigue Training Session,2020.2.4,Win32,60,,,,,,,,,,,,,,,,,,,,,,,,,,,,,,,,,,,,,,,,,,,,,,30.6721,right,30.6623,right,5.8861,0,0,0,0,1,,,,,,,,,,,,,,,,,,,,,,,,,,,,,,,,
926.359,,,,,,,,CU-MSc-pilot-1-LC,2023-10-19_16h30.06.563,Mental Fatigue Training Session,2020.2.4,Win32,60,,,,,,,,,,,,,,,,,,,,,,,,,,,,,,,,,,,,,,,,,,,,,,,,,right,4.8744,1,0,1,0,1,,,,,,,,,,,,,,,,,,,,,,,,,,,,,,,,
931.4232,,,,,,,,CU-MSc-pilot-1-LC,2023-10-19_16h30.06.563,Mental Fatigue Training Session,2020.2.4,Win32,60,,,,,,,,,,,,,,,,,,,,,,,,,,,,,,,,,,,,,,,,,,,,,,,,,right,5.0419,2,0,2,0,1,,,,,,,,,,,,,,,,,,,,,,,,,,,,,,,,
933.6232,,,,,,,,CU-MSc-pilot-1-LC,2023-10-19_16h30.06.563,Mental Fatigue Training Session,2020.2.4,Win32,60,,,,,,,,,,,,,,,,,,,,,,,,,,,,,,,,,,,,,,,,,,,,,,,,,k,2.1845,3,0,3,0,1,,,,,,,,,,,,,,,,,,,,,,,,,,,,,,,,
934.8487,,,,,,,,CU-MSc-pilot-1-LC,2023-10-19_16h30.06.563,Mental Fatigue Training Session,2020.2.4,Win32,60,,,,,,,,,,,,,,,,,,,,,d,,,,,,,,,,,,,,,,,,,,,,,,,,,,,,,,,,,d,1,1.6256,0,0,0,9,1,nonTarget,L,,,,,,,,,,,,,,,,,,,,,,
938.7283,,,,,,,,CU-MSc-pilot-1-LC,2023-10-19_16h30.06.563,Mental Fatigue Training Session,2020.2.4,Win32,60,,,,,,,,,,,,,,,,,,,,,k,,,,,,,,,,,,,,,,,,,,,,,,,,,,,,,,,,,k,1,1.5361,0,1,1,0,1,target,T,,,,,,,,,,,,,,,,,,,,,,
942.5256,,,,,,,,CU-MSc-pilot-1-LC,2023-10-19_16h30.06.563,Mental Fatigue Training Session,2020.2.4,Win32,60,,,,,,,,,,,,,,,,,,,,,d,,,,,,,,,,,,,,,,,,,,,,,,,,,,,,,,,,,d,1,2.4483,0,2,2,5,1,nonTarget,L,,,,,,,,,,,,,,,,,,,,,,
947.2251,,,,,,,,CU-MSc-pilot-1-LC,2023-10-19_16h30.06.563,Mental Fatigue Training Session,2020.2.4,Win32,60,,,,,,,,,,,,,,,,,,,,,d,,,,,,,,,,,,,,,,,,,,,,,,,,,,,,,,,,,d,1,1.4099,0,3,3,1,1,nonTarget,L,,,,,,,,,,,,,,,,,,,,,,
950.8944,,,,,,,,CU-MSc-pilot-1-LC,2023-10-19_16h30.06.563,Mental Fatigue Training Session,2020.2.4,Win32,60,,,,,,,,,,,,,,,,,,,,,k,,,,,,,,,,,,,,,,,,,,,,,,,,,,,,,,,,,k,1,1.0787,0,4,4,2,1,target,T,,,,,,,,,,,,,,,,,,,,,,
954.2429,,,,,,,,CU-MSc-pilot-1-LC,2023-10-19_16h30.06.563,Mental Fatigue Training Session,2020.2.4,Win32,60,,,,,,,,,,,,,,,,,,,,,k,,,,,,,,,,,,,,,,,,,,,,,,,,,,,,,,,,,k,1,1.1751,0,5,5,8,1,target,T,,,,,,,,,,,,,,,,,,,,,,
957.6873,,,,,,,,CU-MSc-pilot-1-LC,2023-10-19_16h30.06.563,Mental Fatigue Training Session,2020.2.4,Win32,60,,,,,,,,,,,,,,,,,,,,,k,,,,,,,,,,,,,,,,,,,,,,,,,,,,,,,,,,,k,1,0.7262,0,6,6,4,1,target,T,,,,,,,,,,,,,,,,,,,,,,
960.6616,,,,,,,,CU-MSc-pilot-1-LC,2023-10-19_16h30.06.563,Mental Fatigue Training Session,2020.2.4,Win32,60,,,,,,,,,,,,,,,,,,,,,d,,,,,,,,,,,,,,,,,,,,,,,,,,,,,,,,,,,d,1,2.2201,0,7,7,7,1,nonTarget,L,,,,,,,,,,,,,,,,,,,,,,
965.1558,,,,,,,,CU-MSc-pilot-1-LC,2023-10-19_16h30.06.563,Mental Fatigue Training Session,2020.2.4,Win32,60,,,,,,,,,,,,,,,,,,,,,d,,,,,,,,,,,,,,,,,,,,,,,,,,,,,,,,,,,d,1,1.6054,0,8,8,3,1,nonTarget,L,,,,,,,,,,,,,,,,,,,,,,
969.0228,,,,,,,,CU-MSc-pilot-1-LC,2023-10-19_16h30.06.563,Mental Fatigue Training Session,2020.2.4,Win32,60,,,,,,,,,,,,,,,,,,,,,k,,,,,,,,,,,,,,,,,,,,,,,,,,,,,,,,,,,k,1,0.6758,0,9,9,6,1,target,T,,,,,,,,,,,,,,,,,,,,,,
971.9583,,,,,,,,CU-MSc-pilot-1-LC,2023-10-19_16h30.06.563,Mental Fatigue Training Session,2020.2.4,Win32,60,,,,,,,,,,,,,,,,,,,,,d,,,,,,,,,,,,,,,,,,,,,,,,,,,,,,,,,,,d,1,1.047,1,0,10,9,1,nonTarget,L,,,,,,,,,,,,,,,,,,,,,,
975.2703,,,,,,,,CU-MSc-pilot-1-LC,2023-10-19_16h30.06.563,Mental Fatigue Training Session,2020.2.4,Win32,60,,,,,,,,,,,,,,,,,,,,,d,,,,,,,,,,,,,,,,,,,,,,,,,,,,,,,,,,,d,1,1.0989,1,1,11,5,1,nonTarget,L,,,,,,,,,,,,,,,,,,,,,,
978.6342,,,,,,,,CU-MSc-pilot-1-LC,2023-10-19_16h30.06.563,Mental Fatigue Training Session,2020.2.4,Win32,60,,,,,,,,,,,,,,,,,,,,,d,,,,,,,,,,,,,,,,,,,,,,,,,,,,,,,,,,,d,1,0.7012,1,2,12,7,1,nonTarget,L,,,,,,,,,,,,,,,,,,,,,,
981.5975,,,,,,,,CU-MSc-pilot-1-LC,2023-10-19_16h30.06.563,Mental Fatigue Training Session,2020.2.4,Win32,60,,,,,,,,,,,,,,,,,,,,,k,,,,,,,,,,,,,,,,,,,,,,,,,,,,,,,,,,,k,1,0.7272,1,3,13,0,1,target,T,,,,,,,,,,,,,,,,,,,,,,
984.6008,,,,,,,,CU-MSc-pilot-1-LC,2023-10-19_16h30.06.563,Mental Fatigue Training Session,2020.2.4,Win32,60,,,,,,,,,,,,,,,,,,,,,k,,,,,,,,,,,,,,,,,,,,,,,,,,,,,,,,,,,k,1,0.706,1,4,14,2,1,target,T,,,,,,,,,,,,,,,,,,,,,,
987.5833,,,,,,,,CU-MSc-pilot-1-LC,2023-10-19_16h30.06.563,Mental Fatigue Training Session,2020.2.4,Win32,60,,,,,,,,,,,,,,,,,,,,,d,,,,,,,,,,,,,,,,,,,,,,,,,,,,,,,,,,,d,1,0.6495,1,5,15,1,1,nonTarget,L,,,,,,,,,,,,,,,,,,,,,,
990.5004,,,,,,,,CU-MSc-pilot-1-LC,2023-10-19_16h30.06.563,Mental Fatigue Training Session,2020.2.4,Win32,60,,,,,,,,,,,,,,,,,,,,,k,,,,,,,,,,,,,,,,,,,,,,,,,,,,,,,,,,,k,1,0.5733,1,6,16,4,1,target,T,,,,,,,,,,,,,,,,,,,,,,
993.331,,,,,,,,CU-MSc-pilot-1-LC,2023-10-19_16h30.06.563,Mental Fatigue Training Session,2020.2.4,Win32,60,,,,,,,,,,,,,,,,,,,,,k,,,,,,,,,,,,,,,,,,,,,,,,,,,,,,,,,,,k,1,0.6084,1,7,17,8,1,target,T,,,,,,,,,,,,,,,,,,,,,,
996.2094,,,,,,,,CU-MSc-pilot-1-LC,2023-10-19_16h30.06.563,Mental Fatigue Training Session,2020.2.4,Win32,60,,,,,,,,,,,,,,,,,,,,,k,,,,,,,,,,,,,,,,,,,,,,,,,,,,,,,,,,,k,1,0.9258,1,8,18,6,1,target,T,,,,,,,,,,,,,,,,,,,,,,
999.3973,,,,,,,,CU-MSc-pilot-1-LC,2023-10-19_16h30.06.563,Mental Fatigue Training Session,2020.2.4,Win32,60,,,,,,,,,,,,,,,,,,,,,d,,,,,,,,,,,,,,,,,,,,,,,,,,,,,,,,,,,d,1,0.9662,1,9,19,3,1,nonTarget,L,,,,,,,,,,,,,,,,,,,,,,
1002.6213,,,,,,,,CU-MSc-pilot-1-LC,2023-10-19_16h30.06.563,Mental Fatigue Training Session,2020.2.4,Win32,60,,,,,,,,,,,,,,,,,,,,,k,,,,,,,,,,,,,,,,,,,,,,,,,,,,,,,,,,,k,1,0.6774,2,0,20,6,1,target,T,,,,,,,,,,,,,,,,,,,,,,
1005.5577,,,,,,,,CU-MSc-pilot-1-LC,2023-10-19_16h30.06.563,Mental Fatigue Training Session,2020.2.4,Win32,60,,,,,,,,,,,,,,,,,,,,,d,,,,,,,,,,,,,,,,,,,,,,,,,,,,,,,,,,,d,1,1.3133,2,1,21,1,1,nonTarget,L,,,,,,,,,,,,,,,,,,,,,,
1009.1232,,,,,,,,CU-MSc-pilot-1-LC,2023-10-19_16h30.06.563,Mental Fatigue Training Session,2020.2.4,Win32,60,,,,,,,,,,,,,,,,,,,,,d,,,,,,,,,,,,,,,,,,,,,,,,,,,,,,,,,,,d,1,2.2379,2,2,22,5,1,nonTarget,L,,,,,,,,,,,,,,,,,,,,,,
1013.6078,,,,,,,,CU-MSc-pilot-1-LC,2023-10-19_16h30.06.563,Mental Fatigue Training Session,2020.2.4,Win32,60,,,,,,,,,,,,,,,,,,,,,k,,,,,,,,,,,,,,,,,,,,,,,,,,,,,,,,,,,k,1,1.9067,2,3,23,4,1,target,T,,,,,,,,,,,,,,,,,,,,,,
1017.7729,,,,,,,,CU-MSc-pilot-1-LC,2023-10-19_16h30.06.563,Mental Fatigue Training Session,2020.2.4,Win32,60,,,,,,,,,,,,,,,,,,,,,k,,,,,,,,,,,,,,,,,,,,,,,,,,,,,,,,,,,k,1,0.7108,2,4,24,0,1,target,T,,,,,,,,,,,,,,,,,,,,,,
1020.7542,,,,,,,,CU-MSc-pilot-1-LC,2023-10-19_16h30.06.563,Mental Fatigue Training Session,2020.2.4,Win32,60,,,,,,,,,,,,,,,,,,,,,d,,,,,,,,,,,,,,,,,,,,,,,,,,,,,,,,,,,d,1,1.0644,2,5,25,7,1,nonTarget,L,,,,,,,,,,,,,,,,,,,,,,
1024.0882,,,,,,,,CU-MSc-pilot-1-LC,2023-10-19_16h30.06.563,Mental Fatigue Training Session,2020.2.4,Win32,60,,,,,,,,,,,,,,,,,,,,,d,,,,,,,,,,,,,,,,,,,,,,,,,,,,,,,,,,,d,1,1.2306,2,6,26,9,1,nonTarget,L,,,,,,,,,,,,,,,,,,,,,,
1027.581,,,,,,,,CU-MSc-pilot-1-LC,2023-10-19_16h30.06.563,Mental Fatigue Training Session,2020.2.4,Win32,60,,,,,,,,,,,,,,,,,,,,,k,,,,,,,,,,,,,,,,,,,,,,,,,,,,,,,,,,,k,1,0.5579,2,7,27,8,1,target,T,,,,,,,,,,,,,,,,,,,,,,
1030.3963,,,,,,,,CU-MSc-pilot-1-LC,2023-10-19_16h30.06.563,Mental Fatigue Training Session,2020.2.4,Win32,60,,,,,,,,,,,,,,,,,,,,,k,,,,,,,,,,,,,,,,,,,,,,,,,,,,,,,,,,,k,1,0.6853,2,8,28,2,1,target,T,,,,,,,,,,,,,,,,,,,,,,
1033.329,,,,,,,,CU-MSc-pilot-1-LC,2023-10-19_16h30.06.563,Mental Fatigue Training Session,2020.2.4,Win32,60,,,,,,,,,,,,,,,,,,,,,d,,,,,,,,,,,,,,,,,,,,,,,,,,,,,,,,,,,d,1,1.0124,2,9,29,3,1,nonTarget,L,,,,,,,,,,,,,,,,,,,,,,
1036.5933,,,,,,,,CU-MSc-pilot-1-LC,2023-10-19_16h30.06.563,Mental Fatigue Training Session,2020.2.4,Win32,60,,,,,,,,,,,,,,,,,,,,,k,,,,,,,,,,,,,,,,,,,,,,,,,,,,,,,,,,,k,1,1.0881,3,0,30,4,1,target,T,,,,,,,,,,,,,,,,,,,,,,
1039.9258,,,,,,,,CU-MSc-pilot-1-LC,2023-10-19_16h30.06.563,Mental Fatigue Training Session,2020.2.4,Win32,60,,,,,,,,,,,,,,,,,,,,,k,,,,,,,,,,,,,,,,,,,,,,,,,,,,,,,,,,,k,1,0.964,3,1,31,8,1,target,T,,,,,,,,,,,,,,,,,,,,,,
1043.1411,,,,,,,,CU-MSc-pilot-1-LC,2023-10-19_16h30.06.563,Mental Fatigue Training Session,2020.2.4,Win32,60,,,,,,,,,,,,,,,,,,,,,d,,,,,,,,,,,,,,,,,,,,,,,,,,,,,,,,,,,d,1,2.0133,3,2,32,3,1,nonTarget,L,,,,,,,,,,,,,,,,,,,,,,
1047.3967,,,,,,,,CU-MSc-pilot-1-LC,2023-10-19_16h30.06.563,Mental Fatigue Training Session,2020.2.4,Win32,60,,,,,,,,,,,,,,,,,,,,,d,,,,,,,,,,,,,,,,,,,,,,,,,,,,,,,,,,,d,1,2.4439,3,3,33,5,1,nonTarget,L,,,,,,,,,,,,,,,,,,,,,,
1052.1108,,,,,,,,CU-MSc-pilot-1-LC,2023-10-19_16h30.06.563,Mental Fatigue Training Session,2020.2.4,Win32,60,,,,,,,,,,,,,,,,,,,,,k,,,,,,,,,,,,,,,,,,,,,,,,,,,,,,,,,,,k,1,0.8023,3,4,34,6,1,target,T,,,,,,,,,,,,,,,,,,,,,,
1055.1737,,,,,,,,CU-MSc-pilot-1-LC,2023-10-19_16h30.06.563,Mental Fatigue Training Session,2020.2.4,Win32,60,,,,,,,,,,,,,,,,,,,,,k,,,,,,,,,,,,,,,,,,,,,,,,,,,,,,,,,,,k,1,1.0594,3,5,35,0,1,target,T,,,,,,,,,,,,,,,,,,,,,,
1058.4883,,,,,,,,CU-MSc-pilot-1-LC,2023-10-19_16h30.06.563,Mental Fatigue Training Session,2020.2.4,Win32,60,,,,,,,,,,,,,,,,,,,,,d,,,,,,,,,,,,,,,,,,,,,,,,,,,,,,,,,,,d,1,1.8916,3,6,36,9,1,nonTarget,L,,,,,,,,,,,,,,,,,,,,,,
1062.6367,,,,,,,,CU-MSc-pilot-1-LC,2023-10-19_16h30.06.563,Mental Fatigue Training Session,2020.2.4,Win32,60,,,,,,,,,,,,,,,,,,,,,d,,,,,,,,,,,,,,,,,,,,,,,,,,,,,,,,,,,d,1,0.7926,3,7,37,1,1,nonTarget,L,,,,,,,,,,,,,,,,,,,,,,
1065.6896,,,,,,,,CU-MSc-pilot-1-LC,2023-10-19_16h30.06.563,Mental Fatigue Training Session,2020.2.4,Win32,60,,,,,,,,,,,,,,,,,,,,,k,,,,,,,,,,,,,,,,,,,,,,,,,,,,,,,,,,,k,1,0.7618,3,8,38,2,1,target,T,,,,,,,,,,,,,,,,,,,,,,
1068.7189,,,,,,,,CU-MSc-pilot-1-LC,2023-10-19_16h30.06.563,Mental Fatigue Training Session,2020.2.4,Win32,60,,,,,,,,,,,,,,,,,,,,,d,,,,,,,,,,,,,,,,,,,,,,,,,,,,,,,,,,,k,0,1.2894,3,9,39,7,1,nonTarget,L,,,,,,,,,,,,,,,,,,,,,,
1072.2697,,,,,,,,CU-MSc-pilot-1-LC,2023-10-19_16h30.06.563,Mental Fatigue Training Session,2020.2.4,Win32,60,,,,,,,,,,,,,,,,,,,,,d,,,,,,,,,,,,,,,,,,,,,,,,,,,,,,,,,,,d,1,1.7555,4,0,40,3,1,nonTarget,L,,,,,,,,,,,,,,,,,,,,,,
1076.2853,,,,,,,,CU-MSc-pilot-1-LC,2023-10-19_16h30.06.563,Mental Fatigue Training Session,2020.2.4,Win32,60,,,,,,,,,,,,,,,,,,,,,k,,,,,,,,,,,,,,,,,,,,,,,,,,,,,,,,,,,k,1,0.8088,4,1,41,6,1,target,T,,,,,,,,,,,,,,,,,,,,,,
1079.3618,,,,,,,,CU-MSc-pilot-1-LC,2023-10-19_16h30.06.563,Mental Fatigue Training Session,2020.2.4,Win32,60,,,,,,,,,,,,,,,,,,,,,d,,,,,,,,,,,,,,,,,,,,,,,,,,,,,,,,,,,d,1,0.7682,4,2,42,7,1,nonTarget,L,,,,,,,,,,,,,,,,,,,,,,
1082.3772,,,,,,,,CU-MSc-pilot-1-LC,2023-10-19_16h30.06.563,Mental Fatigue Training Session,2020.2.4,Win32,60,,,,,,,,,,,,,,,,,,,,,d,,,,,,,,,,,,,,,,,,,,,,,,,,,,,,,,,,,d,1,0.5916,4,3,43,9,1,nonTarget,L,,,,,,,,,,,,,,,,,,,,,,
1085.2162,,,,,,,,CU-MSc-pilot-1-LC,2023-10-19_16h30.06.563,Mental Fatigue Training Session,2020.2.4,Win32,60,,,,,,,,,,,,,,,,,,,,,k,,,,,,,,,,,,,,,,,,,,,,,,,,,,,,,,,,,k,1,0.5653,4,4,44,8,1,target,T,,,,,,,,,,,,,,,,,,,,,,
1088.0418,,,,,,,,CU-MSc-pilot-1-LC,2023-10-19_16h30.06.563,Mental Fatigue Training Session,2020.2.4,Win32,60,,,,,,,,,,,,,,,,,,,,,d,,,,,,,,,,,,,,,,,,,,,,,,,,,,,,,,,,,k,0,0.7795,4,5,45,1,1,nonTarget,L,,,,,,,,,,,,,,,,,,,,,,
1091.067,,,,,,,,CU-MSc-pilot-1-LC,2023-10-19_16h30.06.563,Mental Fatigue Training Session,2020.2.4,Win32,60,,,,,,,,,,,,,,,,,,,,,k,,,,,,,,,,,,,,,,,,,,,,,,,,,,,,,,,,,k,1,1.0326,4,6,46,4,1,target,T,,,,,,,,,,,,,,,,,,,,,,
1094.3613,,,,,,,,CU-MSc-pilot-1-LC,2023-10-19_16h30.06.563,Mental Fatigue Training Session,2020.2.4,Win32,60,,,,,,,,,,,,,,,,,,,,,k,,,,,,,,,,,,,,,,,,,,,,,,,,,,,,,,,,,k,1,0.721,4,7,47,0,1,target,T,,,,,,,,,,,,,,,,,,,,,,
1097.3458,,,,,,,,CU-MSc-pilot-1-LC,2023-10-19_16h30.06.563,Mental Fatigue Training Session,2020.2.4,Win32,60,,,,,,,,,,,,,,,,,,,,,d,,,,,,,,,,,,,,,,,,,,,,,,,,,,,,,,,,,d,1,1.171,4,8,48,5,1,nonTarget,L,,,,,,,,,,,,,,,,,,,,,,
1100.7748,,,,,,,,CU-MSc-pilot-1-LC,2023-10-19_16h30.06.563,Mental Fatigue Training Session,2020.2.4,Win32,60,,,,,,,,,,,,,,,,,,,,,k,,,,,,,,,,,,,,,,,,,,,,,,,,,,,,,,,,,k,1,0.6186,4,9,49,2,1,target,T,,,,,,,,,,,,,,,,,,,,,,
1103.6606,,,,,,,,CU-MSc-pilot-1-LC,2023-10-19_16h30.06.563,Mental Fatigue Training Session,2020.2.4,Win32,60,,,,,,,,,,,,,,,,,,,,,d,,,,,,,,,,,,,,,,,,,,,,,,,,,,,,,,,,,d,1,0.6811,5,0,50,1,1,nonTarget,L,,,,,,,,,,,,,,,,,,,,,,
1106.6106,,,,,,,,CU-MSc-pilot-1-LC,2023-10-19_16h30.06.563,Mental Fatigue Training Session,2020.2.4,Win32,60,,,,,,,,,,,,,,,,,,,,,k,,,,,,,,,,,,,,,,,,,,,,,,,,,,,,,,,,,k,1,0.5117,5,1,51,2,1,target,T,,,,,,,,,,,,,,,,,,,,,,
1109.3916,,,,,,,,CU-MSc-pilot-1-LC,2023-10-19_16h30.06.563,Mental Fatigue Training Session,2020.2.4,Win32,60,,,,,,,,,,,,,,,,,,,,,k,,,,,,,,,,,,,,,,,,,,,,,,,,,,,,,,,,,k,1,1.2668,5,2,52,8,1,target,T,,,,,,,,,,,,,,,,,,,,,,
1112.9258,,,,,,,,CU-MSc-pilot-1-LC,2023-10-19_16h30.06.563,Mental Fatigue Training Session,2020.2.4,Win32,60,,,,,,,,,,,,,,,,,,,,,k,,,,,,,,,,,,,,,,,,,,,,,,,,,,,,,,,,,k,1,0.7227,5,3,53,6,1,target,T,,,,,,,,,,,,,,,,,,,,,,
1115.9054,,,,,,,,CU-MSc-pilot-1-LC,2023-10-19_16h30.06.563,Mental Fatigue Training Session,2020.2.4,Win32,60,,,,,,,,,,,,,,,,,,,,,d,,,,,,,,,,,,,,,,,,,,,,,,,,,,,,,,,,,d,1,1.4004,5,4,54,9,1,nonTarget,L,,,,,,,,,,,,,,,,,,,,,,
1119.5678,,,,,,,,CU-MSc-pilot-1-LC,2023-10-19_16h30.06.563,Mental Fatigue Training Session,2020.2.4,Win32,60,,,,,,,,,,,,,,,,,,,,,d,,,,,,,,,,,,,,,,,,,,,,,,,,,,,,,,,,,d,1,1.2757,5,5,55,7,1,nonTarget,L,,,,,,,,,,,,,,,,,,,,,,
1123.0971,,,,,,,,CU-MSc-pilot-1-LC,2023-10-19_16h30.06.563,Mental Fatigue Training Session,2020.2.4,Win32,60,,,,,,,,,,,,,,,,,,,,,d,,,,,,,,,,,,,,,,,,,,,,,,,,,,,,,,,,,d,1,0.9236,5,6,56,3,1,nonTarget,L,,,,,,,,,,,,,,,,,,,,,,
1126.2701,,,,,,,,CU-MSc-pilot-1-LC,2023-10-19_16h30.06.563,Mental Fatigue Training Session,2020.2.4,Win32,60,,,,,,,,,,,,,,,,,,,,,k,,,,,,,,,,,,,,,,,,,,,,,,,,,,,,,,,,,k,1,1.2886,5,7,57,4,1,target,T,,,,,,,,,,,,,,,,,,,,,,
1129.8107,,,,,,,,CU-MSc-pilot-1-LC,2023-10-19_16h30.06.563,Mental Fatigue Training Session,2020.2.4,Win32,60,,,,,,,,,,,,,,,,,,,,,d,,,,,,,,,,,,,,,,,,,,,,,,,,,,,,,,,,,d,1,0.8263,5,8,58,5,1,nonTarget,L,,,,,,,,,,,,,,,,,,,,,,
1132.8789,,,,,,,,CU-MSc-pilot-1-LC,2023-10-19_16h30.06.563,Mental Fatigue Training Session,2020.2.4,Win32,60,,,,,,,,,,,,,,,,,,,,,k,,,,,,,,,,,,,,,,,,,,,,,,,,,,,,,,,,,k,1,0.5274,5,9,59,0,1,target,T,,,,,,,,,,,,,,,,,,,,,,
1135.6678,,,,,,,,CU-MSc-pilot-1-LC,2023-10-19_16h30.06.563,Mental Fatigue Training Session,2020.2.4,Win32,60,,,,,,,,,,,,,,,,,,,,,d,,,,,,,,,,,,,,,,,,,,,,,,,,,,,,,,,,,d,1,0.8086,6,0,60,5,1,nonTarget,L,,,,,,,,,,,,,,,,,,,,,,
1138.7305,,,,,,,,CU-MSc-pilot-1-LC,2023-10-19_16h30.06.563,Mental Fatigue Training Session,2020.2.4,Win32,60,,,,,,,,,,,,,,,,,,,,,k,,,,,,,,,,,,,,,,,,,,,,,,,,,,,,,,,,,k,1,0.7663,6,1,61,6,1,target,T,,,,,,,,,,,,,,,,,,,,,,
1141.7599,,,,,,,,CU-MSc-pilot-1-LC,2023-10-19_16h30.06.563,Mental Fatigue Training Session,2020.2.4,Win32,60,,,,,,,,,,,,,,,,,,,,,d,,,,,,,,,,,,,,,,,,,,,,,,,,,,,,,,,,,d,1,1.2433,6,2,62,7,1,nonTarget,L,,,,,,,,,,,,,,,,,,,,,,
1145.2661,,,,,,,,CU-MSc-pilot-1-LC,2023-10-19_16h30.06.563,Mental Fatigue Training Session,2020.2.4,Win32,60,,,,,,,,,,,,,,,,,,,,,d,,,,,,,,,,,,,,,,,,,,,,,,,,,,,,,,,,,d,1,0.5883,6,3,63,9,1,nonTarget,L,,,,,,,,,,,,,,,,,,,,,,
1148.1217,,,,,,,,CU-MSc-pilot-1-LC,2023-10-19_16h30.06.563,Mental Fatigue Training Session,2020.2.4,Win32,60,,,,,,,,,,,,,,,,,,,,,d,,,,,,,,,,,,,,,,,,,,,,,,,,,,,,,,,,,d,1,0.4304,6,4,64,3,1,nonTarget,L,,,,,,,,,,,,,,,,,,,,,,
1150.7901,,,,,,,,CU-MSc-pilot-1-LC,2023-10-19_16h30.06.563,Mental Fatigue Training Session,2020.2.4,Win32,60,,,,,,,,,,,,,,,,,,,,,k,,,,,,,,,,,,,,,,,,,,,,,,,,,,,,,,,,,d,0,0.4534,6,5,65,0,1,target,T,,,,,,,,,,,,,,,,,,,,,,
1153.4934,,,,,,,,CU-MSc-pilot-1-LC,2023-10-19_16h30.06.563,Mental Fatigue Training Session,2020.2.4,Win32,60,,,,,,,,,,,,,,,,,,,,,k,,,,,,,,,,,,,,,,,,,,,,,,,,,,,,,,,,,k,1,0.7622,6,6,66,4,1,target,T,,,,,,,,,,,,,,,,,,,,,,
1156.5184,,,,,,,,CU-MSc-pilot-1-LC,2023-10-19_16h30.06.563,Mental Fatigue Training Session,2020.2.4,Win32,60,,,,,,,,,,,,,,,,,,,,,k,,,,,,,,,,,,,,,,,,,,,,,,,,,,,,,,,,,k,1,0.8929,6,7,67,2,1,target,T,,,,,,,,,,,,,,,,,,,,,,
1159.6564,,,,,,,,CU-MSc-pilot-1-LC,2023-10-19_16h30.06.563,Mental Fatigue Training Session,2020.2.4,Win32,60,,,,,,,,,,,,,,,,,,,,,d,,,,,,,,,,,,,,,,,,,,,,,,,,,,,,,,,,,d,1,1.5316,6,8,68,1,1,nonTarget,L,,,,,,,,,,,,,,,,,,,,,,
1163.4569,,,,,,,,CU-MSc-pilot-1-LC,2023-10-19_16h30.06.563,Mental Fatigue Training Session,2020.2.4,Win32,60,,,,,,,,,,,,,,,,,,,,,k,,,,,,,,,,,,,,,,,,,,,,,,,,,,,,,,,,,k,1,0.8701,6,9,69,8,1,target,T,,,,,,,,,,,,,,,,,,,,,,
1166.5878,,,,,,,,CU-MSc-pilot-1-LC,2023-10-19_16h30.06.563,Mental Fatigue Training Session,2020.2.4,Win32,60,,,,,,,,,,,,,,,,,,,,,d,,,,,,,,,,,,,,,,,,,,,,,,,,,,,,,,,,,d,1,1.0395,7,0,70,7,1,nonTarget,L,,,,,,,,,,,,,,,,,,,,,,
1169.9039,,,,,,,,CU-MSc-pilot-1-LC,2023-10-19_16h30.06.563,Mental Fatigue Training Session,2020.2.4,Win32,60,,,,,,,,,,,,,,,,,,,,,k,,,,,,,,,,,,,,,,,,,,,,,,,,,,,,,,,,,k,1,0.8506,7,1,71,4,1,target,T,,,,,,,,,,,,,,,,,,,,,,
1173.0164,,,,,,,,CU-MSc-pilot-1-LC,2023-10-19_16h30.06.563,Mental Fatigue Training Session,2020.2.4,Win32,60,,,,,,,,,,,,,,,,,,,,,d,,,,,,,,,,,,,,,,,,,,,,,,,,,,,,,,,,,d,1,1.5769,7,2,72,9,1,nonTarget,L,,,,,,,,,,,,,,,,,,,,,,
1176.8344,,,,,,,,CU-MSc-pilot-1-LC,2023-10-19_16h30.06.563,Mental Fatigue Training Session,2020.2.4,Win32,60,,,,,,,,,,,,,,,,,,,,,d,,,,,,,,,,,,,,,,,,,,,,,,,,,,,,,,,,,d,1,1.8615,7,3,73,3,1,nonTarget,L,,,,,,,,,,,,,,,,,,,,,,
1180.9678,,,,,,,,CU-MSc-pilot-1-LC,2023-10-19_16h30.06.563,Mental Fatigue Training Session,2020.2.4,Win32,60,,,,,,,,,,,,,,,,,,,,,d,,,,,,,,,,,,,,,,,,,,,,,,,,,,,,,,,,,d,1,1.1587,7,4,74,1,1,nonTarget,L,,,,,,,,,,,,,,,,,,,,,,
1184.4032,,,,,,,,CU-MSc-pilot-1-LC,2023-10-19_16h30.06.563,Mental Fatigue Training Session,2020.2.4,Win32,60,,,,,,,,,,,,,,,,,,,,,k,,,,,,,,,,,,,,,,,,,,,,,,,,,,,,,,,,,k,1,0.8432,7,5,75,2,1,target,T,,,,,,,,,,,,,,,,,,,,,,
1187.5159,,,,,,,,CU-MSc-pilot-1-LC,2023-10-19_16h30.06.563,Mental Fatigue Training Session,2020.2.4,Win32,60,,,,,,,,,,,,,,,,,,,,,k,,,,,,,,,,,,,,,,,,,,,,,,,,,,,,,,,,,k,1,0.8698,7,6,76,8,1,target,T,,,,,,,,,,,,,,,,,,,,,,
1190.6505,,,,,,,,CU-MSc-pilot-1-LC,2023-10-19_16h30.06.563,Mental Fatigue Training Session,2020.2.4,Win32,60,,,,,,,,,,,,,,,,,,,,,k,,,,,,,,,,,,,,,,,,,,,,,,,,,,,,,,,,,k,1,0.7784,7,7,77,6,1,target,T,,,,,,,,,,,,,,,,,,,,,,
1193.6941,,,,,,,,CU-MSc-pilot-1-LC,2023-10-19_16h30.06.563,Mental Fatigue Training Session,2020.2.4,Win32,60,,,,,,,,,,,,,,,,,,,,,d,,,,,,,,,,,,,,,,,,,,,,,,,,,,,,,,,,,d,1,0.8781,7,8,78,5,1,nonTarget,L,,,,,,,,,,,,,,,,,,,,,,
1196.8225,,,,,,,,CU-MSc-pilot-1-LC,2023-10-19_16h30.06.563,Mental Fatigue Training Session,2020.2.4,Win32,60,,,,,,,,,,,,,,,,,,,,,k,,,,,,,,,,,,,,,,,,,,,,,,,,,,,,,,,,,k,1,0.6714,7,9,79,0,1,target,T,,,,,,,,,,,,,,,,,,,,,,
1199.7371,,,,,,,,CU-MSc-pilot-1-LC,2023-10-19_16h30.06.563,Mental Fatigue Training Session,2020.2.4,Win32,60,,,,,,,,,,,,,,,,,,,,,d,,,,,,,,,,,,,,,,,,,,,,,,,,,,,,,,,,,d,1,0.642,8,0,80,1,1,nonTarget,L,,,,,,,,,,,,,,,,,,,,,,
1202.6282,,,,,,,,CU-MSc-pilot-1-LC,2023-10-19_16h30.06.563,Mental Fatigue Training Session,2020.2.4,Win32,60,,,,,,,,,,,,,,,,,,,,,d,,,,,,,,,,,,,,,,,,,,,,,,,,,,,,,,,,,d,1,1.0414,8,1,81,7,1,nonTarget,L,,,,,,,,,,,,,,,,,,,,,,
1205.943,,,,,,,,CU-MSc-pilot-1-LC,2023-10-19_16h30.06.563,Mental Fatigue Training Session,2020.2.4,Win32,60,,,,,,,,,,,,,,,,,,,,,k,,,,,,,,,,,,,,,,,,,,,,,,,,,,,,,,,,,k,1,1.4057,8,2,82,0,1,target,T,,,,,,,,,,,,,,,,,,,,,,
1209.6233,,,,,,,,CU-MSc-pilot-1-LC,2023-10-19_16h30.06.563,Mental Fatigue Training Session,2020.2.4,Win32,60,,,,,,,,,,,,,,,,,,,,,d,,,,,,,,,,,,,,,,,,,,,,,,,,,,,,,,,,,d,1,1.3616,8,3,83,9,1,nonTarget,L,,,,,,,,,,,,,,,,,,,,,,
1213.2493,,,,,,,,CU-MSc-pilot-1-LC,2023-10-19_16h30.06.563,Mental Fatigue Training Session,2020.2.4,Win32,60,,,,,,,,,,,,,,,,,,,,,k,,,,,,,,,,,,,,,,,,,,,,,,,,,,,,,,,,,k,1,1.1705,8,4,84,6,1,target,T,,,,,,,,,,,,,,,,,,,,,,
1216.6706,,,,,,,,CU-MSc-pilot-1-LC,2023-10-19_16h30.06.563,Mental Fatigue Training Session,2020.2.4,Win32,60,,,,,,,,,,,,,,,,,,,,,k,,,,,,,,,,,,,,,,,,,,,,,,,,,,,,,,,,,k,1,1.3235,8,5,85,4,1,target,T,,,,,,,,,,,,,,,,,,,,,,
1220.2467,,,,,,,,CU-MSc-pilot-1-LC,2023-10-19_16h30.06.563,Mental Fatigue Training Session,2020.2.4,Win32,60,,,,,,,,,,,,,,,,,,,,,k,,,,,,,,,,,,,,,,,,,,,,,,,,,,,,,,,,,k,1,3.0903,8,6,86,2,1,target,T,,,,,,,,,,,,,,,,,,,,,,
1225.5797,,,,,,,,CU-MSc-pilot-1-LC,2023-10-19_16h30.06.563,Mental Fatigue Training Session,2020.2.4,Win32,60,,,,,,,,,,,,,,,,,,,,,d,,,,,,,,,,,,,,,,,,,,,,,,,,,,,,,,,,,d,1,1.8959,8,7,87,3,1,nonTarget,L,,,,,,,,,,,,,,,,,,,,,,
1230.0368,,,,,,,,CU-MSc-pilot-1-LC,2023-10-19_16h30.06.563,Mental Fatigue Training Session,2020.2.4,Win32,60,,,,,,,,,,,,,,,,,,,,,k,,,,,,,,,,,,,,,,,,,,,,,,,,,,,,,,,,,k,1,0.6294,8,8,88,8,1,target,T,,,,,,,,,,,,,,,,,,,,,,
1232.9562,,,,,,,,CU-MSc-pilot-1-LC,2023-10-19_16h30.06.563,Mental Fatigue Training Session,2020.2.4,Win32,60,,,,,,,,,,,,,,,,,,,,,d,,,,,,,,,,,,,,,,,,,,,,,,,,,,,,,,,,,d,1,3.1214,8,9,89,5,1,nonTarget,L,,,,,,,,,,,,,,,,,,,,,,
1238.342,,,,,,,,CU-MSc-pilot-1-LC,2023-10-19_16h30.06.563,Mental Fatigue Training Session,2020.2.4,Win32,60,,,,,,,,,,,,,,,,,,,,,d,,,,,,,,,,,,,,,,,,,,,,,,,,,,,,,,,,,d,1,2.3496,9,0,90,1,1,nonTarget,L,,,,,,,,,,,,,,,,,,,,,,
1295.4537,,,,,,,,CU-MSc-pilot-1-LC,2023-10-19_16h30.06.563,Mental Fatigue Training Session,2020.2.4,Win32,60,,,,,,,,,,,,,,,,,,,,,,,,,,,,,,,,,,,,,,,,,,,,,,,,,,,,,,,,,,,,,,,,,,38.2461,right,38.2286,right,15.4205,0,0,0,0,1,,,,,,,,,,,,
1301.6325,,,,,,,,CU-MSc-pilot-1-LC,2023-10-19_16h30.06.563,Mental Fatigue Training Session,2020.2.4,Win32,60,,,,,,,,,,,,,,,,,,,,,,,,,,,,,,,,,,,,,,,,,,,,,,,,,,,,,,,,,,,,,,,,,,,,,right,6.1556,1,0,1,0,1,,,,,,,,,,,,
1303.8985,,,,,,,,CU-MSc-pilot-1-LC,2023-10-19_16h30.06.563,Mental Fatigue Training Session,2020.2.4,Win32,60,,,,,,,,,,,,,,,,,,,,,,,,,,,,,,,,,,,,,,,,,,,,,,,,,,,,,,,,,,,,,,,,,,,,,right,2.2369,2,0,2,0,1,,,,,,,,,,,,
1306.2805,,,,,,,,CU-MSc-pilot-1-LC,2023-10-19_16h30.06.563,Mental Fatigue Training Session,2020.2.4,Win32,60,,,,,,,,,,,,,,,,,,,,,,,,,,,,,,,,,,,,,,,,,,,,,,,,,,,,,,,,,,,,,,,,,,,,,right,2.3623,3,0,3,0,1,,,,,,,,,,,,
1309.1627,,,,,,,,CU-MSc-pilot-1-LC,2023-10-19_16h30.06.563,Mental Fatigue Training Session,2020.2.4,Win32,60,,,,,,,,,,,,,,,,,,,,,,,,,,,,,,,,,,,,,,,,,,,,,,,,,,,,,,,,,,,,,,,,,,,,,k,2.8668,4,0,4,0,1,,,,,,,,,,,,
1311.3312,,,,,,,,CU-MSc-pilot-1-LC,2023-10-19_16h30.06.563,Mental Fatigue Training Session,2020.2.4,Win32,60,,,,,,,,,,,,,,,,,,,,,d,,,,,,,,,,,,,,,,,,,,,,,,,,,,,,,,,,,,,,,,,,,,,,,,,,,,,,,d,1,2.3832,0,0,0,47,1,25_50_R.jpg,50,,
1316.0919,,,,,,,,CU-MSc-pilot-1-LC,2023-10-19_16h30.06.563,Mental Fatigue Training Session,2020.2.4,Win32,60,,,,,,,,,,,,,,,,,,,,,k,,,,,,,,,,,,,,,,,,,,,,,,,,,,,,,,,,,,,,,,,,,,,,,,,,,,,,,k,1,1.4342,0,1,1,88,1,48_0.jpg,0,,
1320.0393,,,,,,,,CU-MSc-pilot-1-LC,2023-10-19_16h30.06.563,Mental Fatigue Training Session,2020.2.4,Win32,60,,,,,,,,,,,,,,,,,,,,,d,,,,,,,,,,,,,,,,,,,,,,,,,,,,,,,,,,,,,,,,,,,,,,,,,,,,,,,d,1,3.8118,0,2,2,73,1,39_0_R.jpg,0,,
1326.3544,,,,,,,,CU-MSc-pilot-1-LC,2023-10-19_16h30.06.563,Mental Fatigue Training Session,2020.2.4,Win32,60,,,,,,,,,,,,,,,,,,,,,k,,,,,,,,,,,,,,,,,,,,,,,,,,,,,,,,,,,,,,,,,,,,,,,,,,,,,,,k,1,1.7088,0,3,3,40,1,25_0.jpg,0,,
1330.4032,,,,,,,,CU-MSc-pilot-1-LC,2023-10-19_16h30.06.563,Mental Fatigue Training Session,2020.2.4,Win32,60,,,,,,,,,,,,,,,,,,,,,d,,,,,,,,,,,,,,,,,,,,,,,,,,,,,,,,,,,,,,,,,,,,,,,,,,,,,,,d,1,2.8162,0,4,4,79,1,39_50_R.jpg,50,,
1335.5591,,,,,,,,CU-MSc-pilot-1-LC,2023-10-19_16h30.06.563,Mental Fatigue Training Session,2020.2.4,Win32,60,,,,,,,,,,,,,,,,,,,,,d,,,,,,,,,,,,,,,,,,,,,,,,,,,,,,,,,,,,,,,,,,,,,,,,,,,,,,,d,1,4.169,0,5,5,67,1,31_100_R.jpg,100,,
1342.0887,,,,,,,,CU-MSc-pilot-1-LC,2023-10-19_16h30.06.563,Mental Fatigue Training Session,2020.2.4,Win32,60,,,,,,,,,,,,,,,,,,,,,k,,,,,,,,,,,,,,,,,,,,,,,,,,,,,,,,,,,,,,,,,,,,,,,,,,,,,,,d,0,4.8446,0,6,6,44,1,25_150.jpg,150,,
1349.3068,,,,,,,,CU-MSc-pilot-1-LC,2023-10-19_16h30.06.563,Mental Fatigue Training Session,2020.2.4,Win32,60,,,,,,,,,,,,,,,,,,,,,d,,,,,,,,,,,,,,,,,,,,,,,,,,,,,,,,,,,,,,,,,,,,,,,,,,,,,,,d,1,2.1699,0,7,7,33,1,23_0_R.jpg,0,,
1353.831,,,,,,,,CU-MSc-pilot-1-LC,2023-10-19_16h30.06.563,Mental Fatigue Training Session,2020.2.4,Win32,60,,,,,,,,,,,,,,,,,,,,,d,,,,,,,,,,,,,,,,,,,,,,,,,,,,,,,,,,,,,,,,,,,,,,,,,,,,,,,d,1,3.803,0,8,8,15,1,8_50_R.jpg,50,,
1359.9996,,,,,,,,CU-MSc-pilot-1-LC,2023-10-19_16h30.06.563,Mental Fatigue Training Session,2020.2.4,Win32,60,,,,,,,,,,,,,,,,,,,,,d,,,,,,,,,,,,,,,,,,,,,,,,,,,,,,,,,,,,,,,,,,,,,,,,,,,,,,,d,1,5.2885,0,9,9,49,1,29_0_R.jpg,0,,
1367.6433,,,,,,,,CU-MSc-pilot-1-LC,2023-10-19_16h30.06.563,Mental Fatigue Training Session,2020.2.4,Win32,60,,,,,,,,,,,,,,,,,,,,,d,,,,,,,,,,,,,,,,,,,,,,,,,,,,,,,,,,,,,,,,,,,,,,,,,,,,,,,d,1,6.6791,0,10,10,57,1,30_0_R.jpg,0,,
1376.6749,,,,,,,,CU-MSc-pilot-1-LC,2023-10-19_16h30.06.563,Mental Fatigue Training Session,2020.2.4,Win32,60,,,,,,,,,,,,,,,,,,,,,k,,,,,,,,,,,,,,,,,,,,,,,,,,,,,,,,,,,,,,,,,,,,,,,,,,,,,,,k,1,2.5698,0,11,11,26,1,21_100.jpg,100,,
1381.5765,,,,,,,,CU-MSc-pilot-1-LC,2023-10-19_16h30.06.563,Mental Fatigue Training Session,2020.2.4,Win32,60,,,,,,,,,,,,,,,,,,,,,k,,,,,,,,,,,,,,,,,,,,,,,,,,,,,,,,,,,,,,,,,,,,,,,,,,,,,,,k,1,3.1014,0,12,12,90,1,48_100.jpg,100,,
1387.0406,,,,,,,,CU-MSc-pilot-1-LC,2023-10-19_16h30.06.563,Mental Fatigue Training Session,2020.2.4,Win32,60,,,,,,,,,,,,,,,,,,,,,d,,,,,,,,,,,,,,,,,,,,,,,,,,,,,,,,,,,,,,,,,,,,,,,,,,,,,,,d,1,2.0993,0,13,13,87,1,43_50_R.jpg,50,,
1391.5056,,,,,,,,CU-MSc-pilot-1-LC,2023-10-19_16h30.06.563,Mental Fatigue Training Session,2020.2.4,Win32,60,,,,,,,,,,,,,,,,,,,,,d,,,,,,,,,,,,,,,,,,,,,,,,,,,,,,,,,,,,,,,,,,,,,,,,,,,,,,,d,1,2.1952,0,14,14,31,1,21_50_R.jpg,50,,
1396.028,,,,,,,,CU-MSc-pilot-1-LC,2023-10-19_16h30.06.563,Mental Fatigue Training Session,2020.2.4,Win32,60,,,,,,,,,,,,,,,,,,,,,k,,,,,,,,,,,,,,,,,,,,,,,,,,,,,,,,,,,,,,,,,,,,,,,,,,,,,,,k,1,3.515,0,15,15,60,1,30_150.jpg,150,,
1401.888,,,,,,,,CU-MSc-pilot-1-LC,2023-10-19_16h30.06.563,Mental Fatigue Training Session,2020.2.4,Win32,60,,,,,,,,,,,,,,,,,,,,,k,,,,,,,,,,,,,,,,,,,,,,,,,,,,,,,,,,,,,,,,,,,,,,,,,,,,,,,k,1,3.6879,0,16,16,68,1,31_150.jpg,150,,
1407.9265,,,,,,,,CU-MSc-pilot-1-LC,2023-10-19_16h30.06.563,Mental Fatigue Training Session,2020.2.4,Win32,60,,,,,,,,,,,,,,,,,,,,,d,,,,,,,,,,,,,,,,,,,,,,,,,,,,,,,,,,,,,,,,,,,,,,,,,,,,,,,d,1,2.9291,0,17,17,39,1,23_50_R.jpg,50,,
1413.189,,,,,,,,CU-MSc-pilot-1-LC,2023-10-19_16h30.06.563,Mental Fatigue Training Session,2020.2.4,Win32,60,,,,,,,,,,,,,,,,,,,,,d,,,,,,,,,,,,,,,,,,,,,,,,,,,,,,,,,,,,,,,,,,,,,,,,,,,,,,,d,1,4.2063,0,18,18,71,1,31_50_R.jpg,50,,
1419.7616,,,,,,,,CU-MSc-pilot-1-LC,2023-10-19_16h30.06.563,Mental Fatigue Training Session,2020.2.4,Win32,60,,,,,,,,,,,,,,,,,,,,,d,,,,,,,,,,,,,,,,,,,,,,,,,,,,,,,,,,,,,,,,,,,,,,,,,,,,,,,d,1,3.117,0,19,19,19,1,19_100_R.jpg,100,,
1425.2278,,,,,,,,CU-MSc-pilot-1-LC,2023-10-19_16h30.06.563,Mental Fatigue Training Session,2020.2.4,Win32,60,,,,,,,,,,,,,,,,,,,,,k,,,,,,,,,,,,,,,,,,,,,,,,,,,,,,,,,,,,,,,,,,,,,,,,,,,,,,,k,1,6.5756,0,20,20,74,1,39_100.jpg,100,,
1434.1869,,,,,,,,CU-MSc-pilot-1-LC,2023-10-19_16h30.06.563,Mental Fatigue Training Session,2020.2.4,Win32,60,,,,,,,,,,,,,,,,,,,,,k,,,,,,,,,,,,,,,,,,,,,,,,,,,,,,,,,,,,,,,,,,,,,,,,,,,,,,,k,1,2.7341,0,21,21,38,1,23_50.jpg,50,,
1439.309,,,,,,,,CU-MSc-pilot-1-LC,2023-10-19_16h30.06.563,Mental Fatigue Training Session,2020.2.4,Win32,60,,,,,,,,,,,,,,,,,,,,,d,,,,,,,,,,,,,,,,,,,,,,,,,,,,,,,,,,,,,,,,,,,,,,,,,,,,,,,k,0,2.9249,0,22,22,89,1,48_0_R.jpg,0,,
1444.6189,,,,,,,,CU-MSc-pilot-1-LC,2023-10-19_16h30.06.563,Mental Fatigue Training Session,2020.2.4,Win32,60,,,,,,,,,,,,,,,,,,,,,k,,,,,,,,,,,,,,,,,,,,,,,,,,,,,,,,,,,,,,,,,,,,,,,,,,,,,,,k,1,1.6453,0,23,23,64,1,31_0.jpg,0,,
1448.6091,,,,,,,,CU-MSc-pilot-1-LC,2023-10-19_16h30.06.563,Mental Fatigue Training Session,2020.2.4,Win32,60,,,,,,,,,,,,,,,,,,,,,k,,,,,,,,,,,,,,,,,,,,,,,,,,,,,,,,,,,,,,,,,,,,,,,,,,,,,,,d,0,2.0922,0,24,24,4,1,1_150.jpg,150,,
1453.0315,,,,,,,,CU-MSc-pilot-1-LC,2023-10-19_16h30.06.563,Mental Fatigue Training Session,2020.2.4,Win32,60,,,,,,,,,,,,,,,,,,,,,d,,,,,,,,,,,,,,,,,,,,,,,,,,,,,,,,,,,,,,,,,,,,,,,,,,,,,,,d,1,2.1464,0,25,25,23,1,19_50_R.jpg,50,,
1457.5599,,,,,,,,CU-MSc-pilot-1-LC,2023-10-19_16h30.06.563,Mental Fatigue Training Session,2020.2.4,Win32,60,,,,,,,,,,,,,,,,,,,,,k,,,,,,,,,,,,,,,,,,,,,,,,,,,,,,,,,,,,,,,,,,,,,,,,,,,,,,,k,1,1.7698,0,26,26,6,1,1_50.jpg,50,,
1461.688,,,,,,,,CU-MSc-pilot-1-LC,2023-10-19_16h30.06.563,Mental Fatigue Training Session,2020.2.4,Win32,60,,,,,,,,,,,,,,,,,,,,,d,,,,,,,,,,,,,,,,,,,,,,,,,,,,,,,,,,,,,,,,,,,,,,,,,,,,,,,d,1,3.855,0,27,27,53,1,29_150_R.jpg,150,,
1467.9253,,,,,,,,CU-MSc-pilot-1-LC,2023-10-19_16h30.06.563,Mental Fatigue Training Session,2020.2.4,Win32,60,,,,,,,,,,,,,,,,,,,,,d,,,,,,,,,,,,,,,,,,,,,,,,,,,,,,,,,,,,,,,,,,,,,,,,,,,,,,,d,1,3.3775,0,28,28,59,1,30_100_R.jpg,100,,
1473.6708,,,,,,,,CU-MSc-pilot-1-LC,2023-10-19_16h30.06.563,Mental Fatigue Training Session,2020.2.4,Win32,60,,,,,,,,,,,,,,,,,,,,,k,,,,,,,,,,,,,,,,,,,,,,,,,,,,,,,,,,,,,,,,,,,,,,,,,,,,,,,k,1,2.0932,0,29,29,50,1,29_100.jpg,100,,
1478.1221,,,,,,,,CU-MSc-pilot-1-LC,2023-10-19_16h30.06.563,Mental Fatigue Training Session,2020.2.4,Win32,60,,,,,,,,,,,,,,,,,,,,,d,,,,,,,,,,,,,,,,,,,,,,,,,,,,,,,,,,,,,,,,,,,,,,,,,,,,,,,d,1,3.282,0,30,30,75,1,39_100_R.jpg,100,,
1483.7744,,,,,,,,CU-MSc-pilot-1-LC,2023-10-19_16h30.06.563,Mental Fatigue Training Session,2020.2.4,Win32,60,,,,,,,,,,,,,,,,,,,,,k,,,,,,,,,,,,,,,,,,,,,,,,,,,,,,,,,,,,,,,,,,,,,,,,,,,,,,,k,1,3.6863,0,31,31,34,1,23_100.jpg,100,,
1489.7983,,,,,,,,CU-MSc-pilot-1-LC,2023-10-19_16h30.06.563,Mental Fatigue Training Session,2020.2.4,Win32,60,,,,,,,,,,,,,,,,,,,,,k,,,,,,,,,,,,,,,,,,,,,,,,,,,,,,,,,,,,,,,,,,,,,,,,,,,,,,,k,1,2.2731,0,32,32,94,1,48_50.jpg,50,,
1494.4125,,,,,,,,CU-MSc-pilot-1-LC,2023-10-19_16h30.06.563,Mental Fatigue Training Session,2020.2.4,Win32,60,,,,,,,,,,,,,,,,,,,,,d,,,,,,,,,,,,,,,,,,,,,,,,,,,,,,,,,,,,,,,,,,,,,,,,,,,,,,,d,1,3.7012,0,33,33,25,1,21_0_R.jpg,0,,
1500.5034,,,,,,,,CU-MSc-pilot-1-LC,2023-10-19_16h30.06.563,Mental Fatigue Training Session,2020.2.4,Win32,60,,,,,,,,,,,,,,,,,,,,,d,,,,,,,,,,,,,,,,,,,,,,,,,,,,,,,,,,,,,,,,,,,,,,,,,,,,,,,d,1,2.5473,0,34,34,29,1,21_150_R.jpg,150,,
1505.4108,,,,,,,,CU-MSc-pilot-1-LC,2023-10-19_16h30.06.563,Mental Fatigue Training Session,2020.2.4,Win32,60,,,,,,,,,,,,,,,,,,,,,k,,,,,,,,,,,,,,,,,,,,,,,,,,,,,,,,,,,,,,,,,,,,,,,,,,,,,,,k,1,1.9035,0,35,35,14,1,8_50.jpg,50,,
1509.6718,,,,,,,,CU-MSc-pilot-1-LC,2023-10-19_16h30.06.563,Mental Fatigue Training Session,2020.2.4,Win32,60,,,,,,,,,,,,,,,,,,,,,k,,,,,,,,,,,,,,,,,,,,,,,,,,,,,,,,,,,,,,,,,,,,,,,,,,,,,,,k,1,1.5501,0,36,36,72,1,39_0.jpg,0,,
1513.5887,,,,,,,,CU-MSc-pilot-1-LC,2023-10-19_16h30.06.563,Mental Fatigue Training Session,2020.2.4,Win32,60,,,,,,,,,,,,,,,,,,,,,d,,,,,,,,,,,,,,,,,,,,,,,,,,,,,,,,,,,,,,,,,,,,,,,,,,,,,,,d,1,4.4019,0,37,37,43,1,25_100_R.jpg,100,,
1520.3663,,,,,,,,CU-MSc-pilot-1-LC,2023-10-19_16h30.06.563,Mental Fatigue Training Session,2020.2.4,Win32,60,,,,,,,,,,,,,,,,,,,,,k,,,,,,,,,,,,,,,,,,,,,,,,,,,,,,,,,,,,,,,,,,,,,,,,,,,,,,,k,1,3.0053,0,38,38,46,1,25_50.jpg,50,,
1525.7284,,,,,,,,CU-MSc-pilot-1-LC,2023-10-19_16h30.06.563,Mental Fatigue Training Session,2020.2.4,Win32,60,,,,,,,,,,,,,,,,,,,,,k,,,,,,,,,,,,,,,,,,,,,,,,,,,,,,,,,,,,,,,,,,,,,,,,,,,,,,,k,1,3.4722,0,39,39,86,1,43_50.jpg,50,,
1531.5595,,,,,,,,CU-MSc-pilot-1-LC,2023-10-19_16h30.06.563,Mental Fatigue Training Session,2020.2.4,Win32,60,,,,,,,,,,,,,,,,,,,,,d,,,,,,,,,,,,,,,,,,,,,,,,,,,,,,,,,,,,,,,,,,,,,,,,,,,,,,,d,1,3.8902,0,40,40,13,1,8_150_R.jpg,150,,
1537.8146,,,,,,,,CU-MSc-pilot-1-LC,2023-10-19_16h30.06.563,Mental Fatigue Training Session,2020.2.4,Win32,60,,,,,,,,,,,,,,,,,,,,,d,,,,,,,,,,,,,,,,,,,,,,,,,,,,,,,,,,,,,,,,,,,,,,,,,,,,,,,d,1,3.1761,0,41,41,27,1,21_100_R.jpg,100,,
1543.3293,,,,,,,,CU-MSc-pilot-1-LC,2023-10-19_16h30.06.563,Mental Fatigue Training Session,2020.2.4,Win32,60,,,,,,,,,,,,,,,,,,,,,k,,,,,,,,,,,,,,,,,,,,,,,,,,,,,,,,,,,,,,,,,,,,,,,,,,,,,,,k,1,1.6721,0,42,42,78,1,39_50.jpg,50,,
1547.3691,,,,,,,,CU-MSc-pilot-1-LC,2023-10-19_16h30.06.563,Mental Fatigue Training Session,2020.2.4,Win32,60,,,,,,,,,,,,,,,,,,,,,d,,,,,,,,,,,,,,,,,,,,,,,,,,,,,,,,,,,,,,,,,,,,,,,,,,,,,,,d,1,4.826,0,43,43,85,1,43_150_R.jpg,150,,
1554.562,,,,,,,,CU-MSc-pilot-1-LC,2023-10-19_16h30.06.563,Mental Fatigue Training Session,2020.2.4,Win32,60,,,,,,,,,,,,,,,,,,,,,d,,,,,,,,,,,,,,,,,,,,,,,,,,,,,,,,,,,,,,,,,,,,,,,,,,,,,,,d,1,5.1299,0,44,44,81,1,43_0_R.jpg,0,,
1562.0787,,,,,,,,CU-MSc-pilot-1-LC,2023-10-19_16h30.06.563,Mental Fatigue Training Session,2020.2.4,Win32,60,,,,,,,,,,,,,,,,,,,,,d,,,,,,,,,,,,,,,,,,,,,,,,,,,,,,,,,,,,,,,,,,,,,,,,,,,,,,,d,1,2.8963,0,45,45,3,1,1_100_R.jpg,100,,
1567.3235,,,,,,,,CU-MSc-pilot-1-LC,2023-10-19_16h30.06.563,Mental Fatigue Training Session,2020.2.4,Win32,60,,,,,,,,,,,,,,,,,,,,,d,,,,,,,,,,,,,,,,,,,,,,,,,,,,,,,,,,,,,,,,,,,,,,,,,,,,,,,d,1,5.1997,0,46,46,83,1,43_100_R.jpg,100,,
1574.8724,,,,,,,,CU-MSc-pilot-1-LC,2023-10-19_16h30.06.563,Mental Fatigue Training Session,2020.2.4,Win32,60,,,,,,,,,,,,,,,,,,,,,k,,,,,,,,,,,,,,,,,,,,,,,,,,,,,,,,,,,,,,,,,,,,,,,,,,,,,,,k,1,1.6916,0,47,47,18,1,19_100.jpg,100,,
1578.9376,,,,,,,,CU-MSc-pilot-1-LC,2023-10-19_16h30.06.563,Mental Fatigue Training Session,2020.2.4,Win32,60,,,,,,,,,,,,,,,,,,,,,k,,,,,,,,,,,,,,,,,,,,,,,,,,,,,,,,,,,,,,,,,,,,,,,,,,,,,,,k,1,2.7332,0,48,48,48,1,29_0.jpg,0,,
1584.0267,,,,,,,,CU-MSc-pilot-1-LC,2023-10-19_16h30.06.563,Mental Fatigue Training Session,2020.2.4,Win32,60,,,,,,,,,,,,,,,,,,,,,k,,,,,,,,,,,,,,,,,,,,,,,,,,,,,,,,,,,,,,,,,,,,,,,,,,,,,,,k,1,3.5457,0,49,49,66,1,31_100.jpg,100,,
1589.9543,,,,,,,,CU-MSc-pilot-1-LC,2023-10-19_16h30.06.563,Mental Fatigue Training Session,2020.2.4,Win32,60,,,,,,,,,,,,,,,,,,,,,k,,,,,,,,,,,,,,,,,,,,,,,,,,,,,,,,,,,,,,,,,,,,,,,,,,,,,,,k,1,4.2574,0,50,50,76,1,39_150.jpg,150,,
1596.5708,,,,,,,,CU-MSc-pilot-1-LC,2023-10-19_16h30.06.563,Mental Fatigue Training Session,2020.2.4,Win32,60,,,,,,,,,,,,,,,,,,,,,k,,,,,,,,,,,,,,,,,,,,,,,,,,,,,,,,,,,,,,,,,,,,,,,,,,,,,,,k,1,3.591,0,51,51,58,1,30_100.jpg,100,,
1602.5086,,,,,,,,CU-MSc-pilot-1-LC,2023-10-19_16h30.06.563,Mental Fatigue Training Session,2020.2.4,Win32,60,,,,,,,,,,,,,,,,,,,,,k,,,,,,,,,,,,,,,,,,,,,,,,,,,,,,,,,,,,,,,,,,,,,,,,,,,,,,,k,1,2.1435,0,52,52,36,1,23_150.jpg,150,,
1607.007,,,,,,,,CU-MSc-pilot-1-LC,2023-10-19_16h30.06.563,Mental Fatigue Training Session,2020.2.4,Win32,60,,,,,,,,,,,,,,,,,,,,,k,,,,,,,,,,,,,,,,,,,,,,,,,,,,,,,,,,,,,,,,,,,,,,,,,,,,,,,k,1,2.5361,0,53,53,10,1,8_100.jpg,100,,
1611.8951,,,,,,,,CU-MSc-pilot-1-LC,2023-10-19_16h30.06.563,Mental Fatigue Training Session,2020.2.4,Win32,60,,,,,,,,,,,,,,,,,,,,,d,,,,,,,,,,,,,,,,,,,,,,,,,,,,,,,,,,,,,,,,,,,,,,,,,,,,,,,d,1,2.067,0,54,54,77,1,39_150_R.jpg,150,,
1633.6753,,,,,,,,CU-MSc-pilot-1-LC,2023-10-19_16h30.06.563,Mental Fatigue Training Session,2020.2.4,Win32,60,,,,,,,,,,,,,,,,,,,,,,,,,,,,,,,,,,,,,,,,,,,,,,,,,,,,,,,,,,,,,,,,,,,,,,,,,,,,,,,,,,,,,,space,18.5168
