elapsed.time,key_resp.keys,key_resp.rt,instrLoop.thisRepN,instrLoop.thisTrialN,instrLoop.thisN,instrLoop.thisIndex,instrLoop.ran,participant,date,expName,psychopyVersion,OS,frameRate,key_resp_2.keys,key_resp_2.rt,instrAXCPTLoop.thisRepN,instrAXCPTLoop.thisTrialN,instrAXCPTLoop.thisN,instrAXCPTLoop.thisIndex,instrAXCPTLoop.ran,AXCPT_resp.keys,AXCPT_resp.corr,AXCPT_resp.rt,AXCPTtrialsLoop.thisRepN,AXCPTtrialsLoop.thisTrialN,AXCPTtrialsLoop.thisN,AXCPTtrialsLoop.thisIndex,AXCPTtrialsLoop.ran,trialNumber,trial,cueType,probeType,trialType,corrResponse,break1.duration,restBreak1_key_resp.keys,restBreak1_key_resp.rt,key_resp_3.keys,key_resp_3.rt,instrNBackLoop.thisRepN,instrNBackLoop.thisTrialN,instrNBackLoop.thisN,instrNBackLoop.thisIndex,instrNBackLoop.ran,NBack_resp_1.keys,NBackTargetLoop.thisRepN,NBackTargetLoop.thisTrialN,NBackTargetLoop.thisN,NBackTargetLoop.thisIndex,NBackTargetLoop.ran,NBack_resp_2.keys,NBack_resp_2.corr,NBack_resp_2.rt,NBackTrialsLoop.thisRepN,NBackTrialsLoop.thisTrialN,NBackTrialsLoop.thisN,NBackTrialsLoop.thisIndex,NBackTrialsLoop.ran,break2.duration,restBreak2_key_resp.keys,restBreak2_key_resp.rt,key_resp_4.keys,key_resp_4.rt,instrSearchLoop.thisRepN,instrSearchLoop.thisTrialN,instrSearchLoop.thisN,instrSearchLoop.thisIndex,instrSearchLoop.ran,key_resp_6.keys,key_resp_6.corr,key_resp_6.rt,searchLoop.thisRepN,searchLoop.thisTrialN,searchLoop.thisN,searchLoop.thisIndex,searchLoop.ran,cond,targetLetter,break3.duration,restBreak3_key_resp.keys,restBreak3_key_resp.rt,key_resp_5.keys,key_resp_5.rt,instrMentRotaLoop.thisRepN,instrMentRotaLoop.thisTrialN,instrMentRotaLoop.thisN,instrMentRotaLoop.thisIndex,instrMentRotaLoop.ran,MROT_resp.keys,MROT_resp.corr,MROT_resp.rt,mentRotTrialsLooop.thisRepN,mentRotTrialsLooop.thisTrialN,mentRotTrialsLooop.thisN,mentRotTrialsLooop.thisIndex,mentRotTrialsLooop.ran,imagefile,orientation,end_resp.keys,end_resp.rt
15.801,right,15.703,0,0,0,0,1,J,2024-01-19_11h29.52.711,Mental Fatigue Training Session,2020.2.4,MacIntel,60,,,,,,,,,,,,,,,,,,,,,,,,,,,,,,,,,,,,,,,,,,,,,,,,,,,,,,,,,,,,,,,,,,,,,,,,,,,,,,,,,,,,,,,
54.482,right,38.621,1,0,1,0,1,J,2024-01-19_11h29.52.711,Mental Fatigue Training Session,2020.2.4,MacIntel,60,,,,,,,,,,,,,,,,,,,,,,,,,,,,,,,,,,,,,,,,,,,,,,,,,,,,,,,,,,,,,,,,,,,,,,,,,,,,,,,,,,,,,,,
65.769,right,11.241,2,0,2,0,1,J,2024-01-19_11h29.52.711,Mental Fatigue Training Session,2020.2.4,MacIntel,60,,,,,,,,,,,,,,,,,,,,,,,,,,,,,,,,,,,,,,,,,,,,,,,,,,,,,,,,,,,,,,,,,,,,,,,,,,,,,,,,,,,,,,,
90.611,,,,,,,,J,2024-01-19_11h29.52.711,Mental Fatigue Training Session,2020.2.4,MacIntel,60,right,24.78,0,0,0,0,1,,,,,,,,,,,,,,,,,,,,,,,,,,,,,,,,,,,,,,,,,,,,,,,,,,,,,,,,,,,,,,,,,,,,,,,,,,,,,,,,
114.287,,,,,,,,J,2024-01-19_11h29.52.711,Mental Fatigue Training Session,2020.2.4,MacIntel,60,right,23.623,1,0,1,0,1,,,,,,,,,,,,,,,,,,,,,,,,,,,,,,,,,,,,,,,,,,,,,,,,,,,,,,,,,,,,,,,,,,,,,,,,,,,,,,,,
130.559,,,,,,,,J,2024-01-19_11h29.52.711,Mental Fatigue Training Session,2020.2.4,MacIntel,60,k,16.219,2,0,2,0,1,,,,,,,,,,,,,,,,,,,,,,,,,,,,,,,,,,,,,,,,,,,,,,,,,,,,,,,,,,,,,,,,,,,,,,,,,,,,,,,,
131.776,,,,,,,,J,2024-01-19_11h29.52.711,Mental Fatigue Training Session,2020.2.4,MacIntel,60,,,,,,,,k,1,1.05,0,0,0,2,1,3,AX,A,X,target,k,,,,,,,,,,,,,,,,,,,,,,,,,,,,,,,,,,,,,,,,,,,,,,,,,,,,,,,,,,,,,,,,,,
139.529,,,,,,,,J,2024-01-19_11h29.52.711,Mental Fatigue Training Session,2020.2.4,MacIntel,60,,,,,,,,k,1,0.933,0,1,1,4,1,5,AX,A,X,target,k,,,,,,,,,,,,,,,,,,,,,,,,,,,,,,,,,,,,,,,,,,,,,,,,,,,,,,,,,,,,,,,,,,
147.182,,,,,,,,J,2024-01-19_11h29.52.711,Mental Fatigue Training Session,2020.2.4,MacIntel,60,,,,,,,,d,1,0.712,0,2,2,9,1,10,BY,B,Y,bothWrong,d,,,,,,,,,,,,,,,,,,,,,,,,,,,,,,,,,,,,,,,,,,,,,,,,,,,,,,,,,,,,,,,,,,
154.617,,,,,,,,J,2024-01-19_11h29.52.711,Mental Fatigue Training Session,2020.2.4,MacIntel,60,,,,,,,,k,1,1.012,0,3,3,1,1,2,AX,A,X,target,k,,,,,,,,,,,,,,,,,,,,,,,,,,,,,,,,,,,,,,,,,,,,,,,,,,,,,,,,,,,,,,,,,,
162.354,,,,,,,,J,2024-01-19_11h29.52.711,Mental Fatigue Training Session,2020.2.4,MacIntel,60,,,,,,,,d,1,0.8,0,4,4,8,1,9,AY,A,Y,cueWrong,d,,,,,,,,,,,,,,,,,,,,,,,,,,,,,,,,,,,,,,,,,,,,,,,,,,,,,,,,,,,,,,,,,,
169.873,,,,,,,,J,2024-01-19_11h29.52.711,Mental Fatigue Training Session,2020.2.4,MacIntel,60,,,,,,,,k,1,0.917,0,5,5,3,1,4,AX,A,X,target,k,,,,,,,,,,,,,,,,,,,,,,,,,,,,,,,,,,,,,,,,,,,,,,,,,,,,,,,,,,,,,,,,,,
177.51,,,,,,,,J,2024-01-19_11h29.52.711,Mental Fatigue Training Session,2020.2.4,MacIntel,60,,,,,,,,,0,,0,6,6,6,1,7,AX,A,X,target,k,,,,,,,,,,,,,,,,,,,,,,,,,,,,,,,,,,,,,,,,,,,,,,,,,,,,,,,,,,,,,,,,,,
185.712,,,,,,,,J,2024-01-19_11h29.52.711,Mental Fatigue Training Session,2020.2.4,MacIntel,60,,,,,,,,d,1,0.897,0,7,7,7,1,8,BX,B,X,probeWrong,d,,,,,,,,,,,,,,,,,,,,,,,,,,,,,,,,,,,,,,,,,,,,,,,,,,,,,,,,,,,,,,,,,,
193.332,,,,,,,,J,2024-01-19_11h29.52.711,Mental Fatigue Training Session,2020.2.4,MacIntel,60,,,,,,,,k,1,0.994,0,8,8,5,1,6,AX,A,X,target,k,,,,,,,,,,,,,,,,,,,,,,,,,,,,,,,,,,,,,,,,,,,,,,,,,,,,,,,,,,,,,,,,,,
201.051,,,,,,,,J,2024-01-19_11h29.52.711,Mental Fatigue Training Session,2020.2.4,MacIntel,60,,,,,,,,k,1,1.016,0,9,9,0,1,1,AX,A,X,target,k,,,,,,,,,,,,,,,,,,,,,,,,,,,,,,,,,,,,,,,,,,,,,,,,,,,,,,,,,,,,,,,,,,
208.787,,,,,,,,J,2024-01-19_11h29.52.711,Mental Fatigue Training Session,2020.2.4,MacIntel,60,,,,,,,,k,1,0.884,1,0,10,1,1,2,AX,A,X,target,k,,,,,,,,,,,,,,,,,,,,,,,,,,,,,,,,,,,,,,,,,,,,,,,,,,,,,,,,,,,,,,,,,,
216.39,,,,,,,,J,2024-01-19_11h29.52.711,Mental Fatigue Training Session,2020.2.4,MacIntel,60,,,,,,,,d,1,0.868,1,1,11,8,1,9,AY,A,Y,cueWrong,d,,,,,,,,,,,,,,,,,,,,,,,,,,,,,,,,,,,,,,,,,,,,,,,,,,,,,,,,,,,,,,,,,,
223.976,,,,,,,,J,2024-01-19_11h29.52.711,Mental Fatigue Training Session,2020.2.4,MacIntel,60,,,,,,,,k,1,0.866,1,2,12,3,1,4,AX,A,X,target,k,,,,,,,,,,,,,,,,,,,,,,,,,,,,,,,,,,,,,,,,,,,,,,,,,,,,,,,,,,,,,,,,,,
231.562,,,,,,,,J,2024-01-19_11h29.52.711,Mental Fatigue Training Session,2020.2.4,MacIntel,60,,,,,,,,k,1,1.086,1,3,13,5,1,6,AX,A,X,target,k,,,,,,,,,,,,,,,,,,,,,,,,,,,,,,,,,,,,,,,,,,,,,,,,,,,,,,,,,,,,,,,,,,
239.365,,,,,,,,J,2024-01-19_11h29.52.711,Mental Fatigue Training Session,2020.2.4,MacIntel,60,,,,,,,,k,1,0.866,1,4,14,2,1,3,AX,A,X,target,k,,,,,,,,,,,,,,,,,,,,,,,,,,,,,,,,,,,,,,,,,,,,,,,,,,,,,,,,,,,,,,,,,,
246.952,,,,,,,,J,2024-01-19_11h29.52.711,Mental Fatigue Training Session,2020.2.4,MacIntel,60,,,,,,,,k,1,0.85,1,5,15,0,1,1,AX,A,X,target,k,,,,,,,,,,,,,,,,,,,,,,,,,,,,,,,,,,,,,,,,,,,,,,,,,,,,,,,,,,,,,,,,,,
254.521,,,,,,,,J,2024-01-19_11h29.52.711,Mental Fatigue Training Session,2020.2.4,MacIntel,60,,,,,,,,d,1,1.03,1,6,16,9,1,10,BY,B,Y,bothWrong,d,,,,,,,,,,,,,,,,,,,,,,,,,,,,,,,,,,,,,,,,,,,,,,,,,,,,,,,,,,,,,,,,,,
262.275,,,,,,,,J,2024-01-19_11h29.52.711,Mental Fatigue Training Session,2020.2.4,MacIntel,60,,,,,,,,k,1,0.848,1,7,17,4,1,5,AX,A,X,target,k,,,,,,,,,,,,,,,,,,,,,,,,,,,,,,,,,,,,,,,,,,,,,,,,,,,,,,,,,,,,,,,,,,
269.843,,,,,,,,J,2024-01-19_11h29.52.711,Mental Fatigue Training Session,2020.2.4,MacIntel,60,,,,,,,,k,1,1.018,1,8,18,6,1,7,AX,A,X,target,k,,,,,,,,,,,,,,,,,,,,,,,,,,,,,,,,,,,,,,,,,,,,,,,,,,,,,,,,,,,,,,,,,,
277.58,,,,,,,,J,2024-01-19_11h29.52.711,Mental Fatigue Training Session,2020.2.4,MacIntel,60,,,,,,,,d,1,0.947,1,9,19,7,1,8,BX,B,X,probeWrong,d,,,,,,,,,,,,,,,,,,,,,,,,,,,,,,,,,,,,,,,,,,,,,,,,,,,,,,,,,,,,,,,,,,
285.248,,,,,,,,J,2024-01-19_11h29.52.711,Mental Fatigue Training Session,2020.2.4,MacIntel,60,,,,,,,,k,1,0.78,2,0,20,3,1,4,AX,A,X,target,k,,,,,,,,,,,,,,,,,,,,,,,,,,,,,,,,,,,,,,,,,,,,,,,,,,,,,,,,,,,,,,,,,,
292.752,,,,,,,,J,2024-01-19_11h29.52.711,Mental Fatigue Training Session,2020.2.4,MacIntel,60,,,,,,,,k,1,1.066,2,1,21,2,1,3,AX,A,X,target,k,,,,,,,,,,,,,,,,,,,,,,,,,,,,,,,,,,,,,,,,,,,,,,,,,,,,,,,,,,,,,,,,,,
300.538,,,,,,,,J,2024-01-19_11h29.52.711,Mental Fatigue Training Session,2020.2.4,MacIntel,60,,,,,,,,d,1,1.13,2,2,22,7,1,8,BX,B,X,probeWrong,d,,,,,,,,,,,,,,,,,,,,,,,,,,,,,,,,,,,,,,,,,,,,,,,,,,,,,,,,,,,,,,,,,,
308.373,,,,,,,,J,2024-01-19_11h29.52.711,Mental Fatigue Training Session,2020.2.4,MacIntel,60,,,,,,,,k,1,0.863,2,3,23,4,1,5,AX,A,X,target,k,,,,,,,,,,,,,,,,,,,,,,,,,,,,,,,,,,,,,,,,,,,,,,,,,,,,,,,,,,,,,,,,,,
315.959,,,,,,,,J,2024-01-19_11h29.52.711,Mental Fatigue Training Session,2020.2.4,MacIntel,60,,,,,,,,k,1,0.833,2,4,24,0,1,1,AX,A,X,target,k,,,,,,,,,,,,,,,,,,,,,,,,,,,,,,,,,,,,,,,,,,,,,,,,,,,,,,,,,,,,,,,,,,
323.512,,,,,,,,J,2024-01-19_11h29.52.711,Mental Fatigue Training Session,2020.2.4,MacIntel,60,,,,,,,,k,1,0.751,2,5,25,6,1,7,AX,A,X,target,k,,,,,,,,,,,,,,,,,,,,,,,,,,,,,,,,,,,,,,,,,,,,,,,,,,,,,,,,,,,,,,,,,,
330.982,,,,,,,,J,2024-01-19_11h29.52.711,Mental Fatigue Training Session,2020.2.4,MacIntel,60,,,,,,,,k,1,1.032,2,6,26,5,1,6,AX,A,X,target,k,,,,,,,,,,,,,,,,,,,,,,,,,,,,,,,,,,,,,,,,,,,,,,,,,,,,,,,,,,,,,,,,,,
338.734,,,,,,,,J,2024-01-19_11h29.52.711,Mental Fatigue Training Session,2020.2.4,MacIntel,60,,,,,,,,k,1,0.833,2,7,27,1,1,2,AX,A,X,target,k,,,,,,,,,,,,,,,,,,,,,,,,,,,,,,,,,,,,,,,,,,,,,,,,,,,,,,,,,,,,,,,,,,
346.287,,,,,,,,J,2024-01-19_11h29.52.711,Mental Fatigue Training Session,2020.2.4,MacIntel,60,,,,,,,,d,1,0.752,2,8,28,8,1,9,AY,A,Y,cueWrong,d,,,,,,,,,,,,,,,,,,,,,,,,,,,,,,,,,,,,,,,,,,,,,,,,,,,,,,,,,,,,,,,,,,
353.756,,,,,,,,J,2024-01-19_11h29.52.711,Mental Fatigue Training Session,2020.2.4,MacIntel,60,,,,,,,,d,1,0.798,2,9,29,9,1,10,BY,B,Y,bothWrong,d,,,,,,,,,,,,,,,,,,,,,,,,,,,,,,,,,,,,,,,,,,,,,,,,,,,,,,,,,,,,,,,,,,
361.276,,,,,,,,J,2024-01-19_11h29.52.711,Mental Fatigue Training Session,2020.2.4,MacIntel,60,,,,,,,,k,1,0.73,3,0,30,5,1,6,AX,A,X,target,k,,,,,,,,,,,,,,,,,,,,,,,,,,,,,,,,,,,,,,,,,,,,,,,,,,,,,,,,,,,,,,,,,,
368.729,,,,,,,,J,2024-01-19_11h29.52.711,Mental Fatigue Training Session,2020.2.4,MacIntel,60,,,,,,,,k,1,1.116,3,1,31,2,1,3,AX,A,X,target,k,,,,,,,,,,,,,,,,,,,,,,,,,,,,,,,,,,,,,,,,,,,,,,,,,,,,,,,,,,,,,,,,,,
376.565,,,,,,,,J,2024-01-19_11h29.52.711,Mental Fatigue Training Session,2020.2.4,MacIntel,60,,,,,,,,d,1,0.516,3,2,32,9,1,10,BY,B,Y,bothWrong,d,,,,,,,,,,,,,,,,,,,,,,,,,,,,,,,,,,,,,,,,,,,,,,,,,,,,,,,,,,,,,,,,,,
383.802,,,,,,,,J,2024-01-19_11h29.52.711,Mental Fatigue Training Session,2020.2.4,MacIntel,60,,,,,,,,k,1,1.03,3,3,33,4,1,5,AX,A,X,target,k,,,,,,,,,,,,,,,,,,,,,,,,,,,,,,,,,,,,,,,,,,,,,,,,,,,,,,,,,,,,,,,,,,
391.553,,,,,,,,J,2024-01-19_11h29.52.711,Mental Fatigue Training Session,2020.2.4,MacIntel,60,,,,,,,,d,1,0.784,3,4,34,8,1,9,AY,A,Y,cueWrong,d,,,,,,,,,,,,,,,,,,,,,,,,,,,,,,,,,,,,,,,,,,,,,,,,,,,,,,,,,,,,,,,,,,
399.056,,,,,,,,J,2024-01-19_11h29.52.711,Mental Fatigue Training Session,2020.2.4,MacIntel,60,,,,,,,,k,1,0.651,3,5,35,1,1,2,AX,A,X,target,k,,,,,,,,,,,,,,,,,,,,,,,,,,,,,,,,,,,,,,,,,,,,,,,,,,,,,,,,,,,,,,,,,,
406.425,,,,,,,,J,2024-01-19_11h29.52.711,Mental Fatigue Training Session,2020.2.4,MacIntel,60,,,,,,,,k,1,1.15,3,6,36,0,1,1,AX,A,X,target,k,,,,,,,,,,,,,,,,,,,,,,,,,,,,,,,,,,,,,,,,,,,,,,,,,,,,,,,,,,,,,,,,,,
414.295,,,,,,,,J,2024-01-19_11h29.52.711,Mental Fatigue Training Session,2020.2.4,MacIntel,60,,,,,,,,d,1,0.785,3,7,37,7,1,8,BX,B,X,probeWrong,d,,,,,,,,,,,,,,,,,,,,,,,,,,,,,,,,,,,,,,,,,,,,,,,,,,,,,,,,,,,,,,,,,,
421.798,,,,,,,,J,2024-01-19_11h29.52.711,Mental Fatigue Training Session,2020.2.4,MacIntel,60,,,,,,,,k,1,0.662,3,8,38,6,1,7,AX,A,X,target,k,,,,,,,,,,,,,,,,,,,,,,,,,,,,,,,,,,,,,,,,,,,,,,,,,,,,,,,,,,,,,,,,,,
429.184,,,,,,,,J,2024-01-19_11h29.52.711,Mental Fatigue Training Session,2020.2.4,MacIntel,60,,,,,,,,k,1,0.932,3,9,39,3,1,4,AX,A,X,target,k,,,,,,,,,,,,,,,,,,,,,,,,,,,,,,,,,,,,,,,,,,,,,,,,,,,,,,,,,,,,,,,,,,
436.837,,,,,,,,J,2024-01-19_11h29.52.711,Mental Fatigue Training Session,2020.2.4,MacIntel,60,,,,,,,,k,1,0.584,4,0,40,2,1,3,AX,A,X,target,k,,,,,,,,,,,,,,,,,,,,,,,,,,,,,,,,,,,,,,,,,,,,,,,,,,,,,,,,,,,,,,,,,,
491.44,,,,,,,,J,2024-01-19_11h29.52.711,Mental Fatigue Training Session,2020.2.4,MacIntel,60,,,,,,,,,,,,,,,,,,,,,,22.508,right,22.479,right,25.943,0,0,0,0,1,,,,,,,,,,,,,,,,,,,,,,,,,,,,,,,,,,,,,,,,,,,,,,,,,,,,,,,,
533.88,,,,,,,,J,2024-01-19_11h29.52.711,Mental Fatigue Training Session,2020.2.4,MacIntel,60,,,,,,,,,,,,,,,,,,,,,,,,,right,42.402,1,0,1,0,1,,,,,,,,,,,,,,,,,,,,,,,,,,,,,,,,,,,,,,,,,,,,,,,,,,,,,,,,
545.642,,,,,,,,J,2024-01-19_11h29.52.711,Mental Fatigue Training Session,2020.2.4,MacIntel,60,,,,,,,,,,,,,,,,,,,,,,,,,right,11.705,2,0,2,0,1,,,,,,,,,,,,,,,,,,,,,,,,,,,,,,,,,,,,,,,,,,,,,,,,,,,,,,,,
553.129,,,,,,,,J,2024-01-19_11h29.52.711,Mental Fatigue Training Session,2020.2.4,MacIntel,60,,,,,,,,,,,,,,,,,,,,,,,,,k,7.471,3,0,3,0,1,,,,,,,,,,,,,,,,,,,,,,,,,,,,,,,,,,,,,,,,,,,,,,,,,,,,,,,,
554.329,,,,,,,,J,2024-01-19_11h29.52.711,Mental Fatigue Training Session,2020.2.4,MacIntel,60,,,,,,,,,,,,,,,,,,,,,,,,,,,,,,,,,0,0,0,0,1,,,,,,,,,,,,,,,,,,,,,,,,,,,,,,,,,,,,,,,,,,,,,,,,,,
557.515,,,,,,,,J,2024-01-19_11h29.52.711,Mental Fatigue Training Session,2020.2.4,MacIntel,60,,,,,,,,,,,,,,,,,,,,,,,,,,,,,,,,,1,0,1,0,1,,,,,,,,,,,,,,,,,,,,,,,,,,,,,,,,,,,,,,,,,,,,,,,,,,
560.709,,,,,,,,J,2024-01-19_11h29.52.711,Mental Fatigue Training Session,2020.2.4,MacIntel,60,,,,,,,,,,,,,,,,,,,,,,,,,,,,,,,,,2,0,2,0,1,,,,,,,,,,,,,,,,,,,,,,,,,,,,,,,,,,,,,,,,,,,,,,,,,,
563.934,,,,,,,,J,2024-01-19_11h29.52.711,Mental Fatigue Training Session,2020.2.4,MacIntel,60,,,,,,,,,,,,,,,,,1,,,target,k,,,,,,,,,,,,,,,,,k,1,0.822,0,0,0,0,1,,,,,,,,,,,,,,,,,,,,,,,,,,,,,,,,,,,,,,,,,,
566.984,,,,,,,,J,2024-01-19_11h29.52.711,Mental Fatigue Training Session,2020.2.4,MacIntel,60,,,,,,,,,,,,,,,,,8,,,nonTarget,d,,,,,,,,,,,,,,,,,,0,,0,1,1,7,1,,,,,,,,,,,,,,,,,,,,,,,,,,,,,,,,,,,,,,,,,,
571.185,,,,,,,,J,2024-01-19_11h29.52.711,Mental Fatigue Training Session,2020.2.4,MacIntel,60,,,,,,,,,,,,,,,,,2,,,target,k,,,,,,,,,,,,,,,,,k,1,1.146,0,2,2,1,1,,,,,,,,,,,,,,,,,,,,,,,,,,,,,,,,,,,,,,,,,,
574.553,,,,,,,,J,2024-01-19_11h29.52.711,Mental Fatigue Training Session,2020.2.4,MacIntel,60,,,,,,,,,,,,,,,,,5,,,nonTarget,d,,,,,,,,,,,,,,,,,,0,,0,3,3,4,1,,,,,,,,,,,,,,,,,,,,,,,,,,,,,,,,,,,,,,,,,,
578.755,,,,,,,,J,2024-01-19_11h29.52.711,Mental Fatigue Training Session,2020.2.4,MacIntel,60,,,,,,,,,,,,,,,,,10,,,nonTarget,d,,,,,,,,,,,,,,,,,,0,,0,4,4,9,1,,,,,,,,,,,,,,,,,,,,,,,,,,,,,,,,,,,,,,,,,,
582.956,,,,,,,,J,2024-01-19_11h29.52.711,Mental Fatigue Training Session,2020.2.4,MacIntel,60,,,,,,,,,,,,,,,,,9,,,nonTarget,d,,,,,,,,,,,,,,,,,d,1,1.063,0,5,5,8,1,,,,,,,,,,,,,,,,,,,,,,,,,,,,,,,,,,,,,,,,,,
586.241,,,,,,,,J,2024-01-19_11h29.52.711,Mental Fatigue Training Session,2020.2.4,MacIntel,60,,,,,,,,,,,,,,,,,4,,,nonTarget,d,,,,,,,,,,,,,,,,,k,0,0.795,0,6,6,3,1,,,,,,,,,,,,,,,,,,,,,,,,,,,,,,,,,,,,,,,,,,
589.259,,,,,,,,J,2024-01-19_11h29.52.711,Mental Fatigue Training Session,2020.2.4,MacIntel,60,,,,,,,,,,,,,,,,,3,,,target,k,,,,,,,,,,,,,,,,,d,0,1.014,0,7,7,2,1,,,,,,,,,,,,,,,,,,,,,,,,,,,,,,,,,,,,,,,,,,
592.494,,,,,,,,J,2024-01-19_11h29.52.711,Mental Fatigue Training Session,2020.2.4,MacIntel,60,,,,,,,,,,,,,,,,,6,,,nonTarget,d,,,,,,,,,,,,,,,,,d,1,1.764,0,8,8,5,1,,,,,,,,,,,,,,,,,,,,,,,,,,,,,,,,,,,,,,,,,,
596.477,,,,,,,,J,2024-01-19_11h29.52.711,Mental Fatigue Training Session,2020.2.4,MacIntel,60,,,,,,,,,,,,,,,,,7,,,nonTarget,d,,,,,,,,,,,,,,,,,k,0,1.365,0,9,9,6,1,,,,,,,,,,,,,,,,,,,,,,,,,,,,,,,,,,,,,,,,,,
600.062,,,,,,,,J,2024-01-19_11h29.52.711,Mental Fatigue Training Session,2020.2.4,MacIntel,60,,,,,,,,,,,,,,,,,8,,,nonTarget,d,,,,,,,,,,,,,,,,,d,1,1.33,1,0,10,7,1,,,,,,,,,,,,,,,,,,,,,,,,,,,,,,,,,,,,,,,,,,
603.614,,,,,,,,J,2024-01-19_11h29.52.711,Mental Fatigue Training Session,2020.2.4,MacIntel,60,,,,,,,,,,,,,,,,,6,,,nonTarget,d,,,,,,,,,,,,,,,,,k,0,1.31,1,1,11,5,1,,,,,,,,,,,,,,,,,,,,,,,,,,,,,,,,,,,,,,,,,,
607.132,,,,,,,,J,2024-01-19_11h29.52.711,Mental Fatigue Training Session,2020.2.4,MacIntel,60,,,,,,,,,,,,,,,,,2,,,target,k,,,,,,,,,,,,,,,,,k,1,0.993,1,2,12,1,1,,,,,,,,,,,,,,,,,,,,,,,,,,,,,,,,,,,,,,,,,,
610.349,,,,,,,,J,2024-01-19_11h29.52.711,Mental Fatigue Training Session,2020.2.4,MacIntel,60,,,,,,,,,,,,,,,,,4,,,nonTarget,d,,,,,,,,,,,,,,,,,d,1,1.146,1,3,13,3,1,,,,,,,,,,,,,,,,,,,,,,,,,,,,,,,,,,,,,,,,,,
613.718,,,,,,,,J,2024-01-19_11h29.52.711,Mental Fatigue Training Session,2020.2.4,MacIntel,60,,,,,,,,,,,,,,,,,1,,,target,k,,,,,,,,,,,,,,,,,k,1,1.063,1,4,14,0,1,,,,,,,,,,,,,,,,,,,,,,,,,,,,,,,,,,,,,,,,,,
617.002,,,,,,,,J,2024-01-19_11h29.52.711,Mental Fatigue Training Session,2020.2.4,MacIntel,60,,,,,,,,,,,,,,,,,3,,,target,k,,,,,,,,,,,,,,,,,k,1,1.031,1,5,15,2,1,,,,,,,,,,,,,,,,,,,,,,,,,,,,,,,,,,,,,,,,,,
620.253,,,,,,,,J,2024-01-19_11h29.52.711,Mental Fatigue Training Session,2020.2.4,MacIntel,60,,,,,,,,,,,,,,,,,9,,,nonTarget,d,,,,,,,,,,,,,,,,,d,1,0.595,1,6,16,8,1,,,,,,,,,,,,,,,,,,,,,,,,,,,,,,,,,,,,,,,,,,
623.071,,,,,,,,J,2024-01-19_11h29.52.711,Mental Fatigue Training Session,2020.2.4,MacIntel,60,,,,,,,,,,,,,,,,,5,,,nonTarget,d,,,,,,,,,,,,,,,,,d,1,0.767,1,7,17,4,1,,,,,,,,,,,,,,,,,,,,,,,,,,,,,,,,,,,,,,,,,,
626.055,,,,,,,,J,2024-01-19_11h29.52.711,Mental Fatigue Training Session,2020.2.4,MacIntel,60,,,,,,,,,,,,,,,,,10,,,nonTarget,d,,,,,,,,,,,,,,,,,k,0,0.965,1,8,18,9,1,,,,,,,,,,,,,,,,,,,,,,,,,,,,,,,,,,,,,,,,,,
629.24,,,,,,,,J,2024-01-19_11h29.52.711,Mental Fatigue Training Session,2020.2.4,MacIntel,60,,,,,,,,,,,,,,,,,7,,,nonTarget,d,,,,,,,,,,,,,,,,,k,0,1.162,1,9,19,6,1,,,,,,,,,,,,,,,,,,,,,,,,,,,,,,,,,,,,,,,,,,
632.625,,,,,,,,J,2024-01-19_11h29.52.711,Mental Fatigue Training Session,2020.2.4,MacIntel,60,,,,,,,,,,,,,,,,,4,,,nonTarget,d,,,,,,,,,,,,,,,,,d,1,1.012,2,0,20,3,1,,,,,,,,,,,,,,,,,,,,,,,,,,,,,,,,,,,,,,,,,,
635.858,,,,,,,,J,2024-01-19_11h29.52.711,Mental Fatigue Training Session,2020.2.4,MacIntel,60,,,,,,,,,,,,,,,,,8,,,nonTarget,d,,,,,,,,,,,,,,,,,d,1,0.664,2,1,21,7,1,,,,,,,,,,,,,,,,,,,,,,,,,,,,,,,,,,,,,,,,,,
638.744,,,,,,,,J,2024-01-19_11h29.52.711,Mental Fatigue Training Session,2020.2.4,MacIntel,60,,,,,,,,,,,,,,,,,9,,,nonTarget,d,,,,,,,,,,,,,,,,,k,0,0.663,2,2,22,8,1,,,,,,,,,,,,,,,,,,,,,,,,,,,,,,,,,,,,,,,,,,
641.627,,,,,,,,J,2024-01-19_11h29.52.711,Mental Fatigue Training Session,2020.2.4,MacIntel,60,,,,,,,,,,,,,,,,,2,,,target,k,,,,,,,,,,,,,,,,,k,1,0.947,2,3,23,1,1,,,,,,,,,,,,,,,,,,,,,,,,,,,,,,,,,,,,,,,,,,
644.796,,,,,,,,J,2024-01-19_11h29.52.711,Mental Fatigue Training Session,2020.2.4,MacIntel,60,,,,,,,,,,,,,,,,,6,,,nonTarget,d,,,,,,,,,,,,,,,,,d,1,1.096,2,4,24,5,1,,,,,,,,,,,,,,,,,,,,,,,,,,,,,,,,,,,,,,,,,,
648.113,,,,,,,,J,2024-01-19_11h29.52.711,Mental Fatigue Training Session,2020.2.4,MacIntel,60,,,,,,,,,,,,,,,,,5,,,nonTarget,d,,,,,,,,,,,,,,,,,d,1,0.714,2,5,25,4,1,,,,,,,,,,,,,,,,,,,,,,,,,,,,,,,,,,,,,,,,,,
651.031,,,,,,,,J,2024-01-19_11h29.52.711,Mental Fatigue Training Session,2020.2.4,MacIntel,60,,,,,,,,,,,,,,,,,1,,,target,k,,,,,,,,,,,,,,,,,d,0,1.432,2,6,26,0,1,,,,,,,,,,,,,,,,,,,,,,,,,,,,,,,,,,,,,,,,,,
654.665,,,,,,,,J,2024-01-19_11h29.52.711,Mental Fatigue Training Session,2020.2.4,MacIntel,60,,,,,,,,,,,,,,,,,7,,,nonTarget,d,,,,,,,,,,,,,,,,,d,1,1.048,2,7,27,6,1,,,,,,,,,,,,,,,,,,,,,,,,,,,,,,,,,,,,,,,,,,
657.934,,,,,,,,J,2024-01-19_11h29.52.711,Mental Fatigue Training Session,2020.2.4,MacIntel,60,,,,,,,,,,,,,,,,,10,,,nonTarget,d,,,,,,,,,,,,,,,,,d,1,1.468,2,8,28,9,1,,,,,,,,,,,,,,,,,,,,,,,,,,,,,,,,,,,,,,,,,,
661.617,,,,,,,,J,2024-01-19_11h29.52.711,Mental Fatigue Training Session,2020.2.4,MacIntel,60,,,,,,,,,,,,,,,,,3,,,target,k,,,,,,,,,,,,,,,,,k,1,0.799,2,9,29,2,1,,,,,,,,,,,,,,,,,,,,,,,,,,,,,,,,,,,,,,,,,,
664.636,,,,,,,,J,2024-01-19_11h29.52.711,Mental Fatigue Training Session,2020.2.4,MacIntel,60,,,,,,,,,,,,,,,,,4,,,nonTarget,d,,,,,,,,,,,,,,,,,d,1,0.744,3,0,30,3,1,,,,,,,,,,,,,,,,,,,,,,,,,,,,,,,,,,,,,,,,,,
667.604,,,,,,,,J,2024-01-19_11h29.52.711,Mental Fatigue Training Session,2020.2.4,MacIntel,60,,,,,,,,,,,,,,,,,3,,,target,k,,,,,,,,,,,,,,,,,d,0,1.313,3,1,31,2,1,,,,,,,,,,,,,,,,,,,,,,,,,,,,,,,,,,,,,,,,,,
671.137,,,,,,,,J,2024-01-19_11h29.52.711,Mental Fatigue Training Session,2020.2.4,MacIntel,60,,,,,,,,,,,,,,,,,5,,,nonTarget,d,,,,,,,,,,,,,,,,,d,1,1.599,3,2,32,4,1,,,,,,,,,,,,,,,,,,,,,,,,,,,,,,,,,,,,,,,,,,
674.962,,,,,,,,J,2024-01-19_11h29.52.711,Mental Fatigue Training Session,2020.2.4,MacIntel,60,,,,,,,,,,,,,,,,,2,,,target,k,,,,,,,,,,,,,,,,,k,1,1.103,3,3,33,1,1,,,,,,,,,,,,,,,,,,,,,,,,,,,,,,,,,,,,,,,,,,
678.292,,,,,,,,J,2024-01-19_11h29.52.711,Mental Fatigue Training Session,2020.2.4,MacIntel,60,,,,,,,,,,,,,,,,,6,,,nonTarget,d,,,,,,,,,,,,,,,,,k,0,1.18,3,4,34,5,1,,,,,,,,,,,,,,,,,,,,,,,,,,,,,,,,,,,,,,,,,,
681.691,,,,,,,,J,2024-01-19_11h29.52.711,Mental Fatigue Training Session,2020.2.4,MacIntel,60,,,,,,,,,,,,,,,,,1,,,target,k,,,,,,,,,,,,,,,,,k,1,0.784,3,5,35,0,1,,,,,,,,,,,,,,,,,,,,,,,,,,,,,,,,,,,,,,,,,,
684.693,,,,,,,,J,2024-01-19_11h29.52.711,Mental Fatigue Training Session,2020.2.4,MacIntel,60,,,,,,,,,,,,,,,,,8,,,nonTarget,d,,,,,,,,,,,,,,,,,d,1,0.697,3,6,36,7,1,,,,,,,,,,,,,,,,,,,,,,,,,,,,,,,,,,,,,,,,,,
687.608,,,,,,,,J,2024-01-19_11h29.52.711,Mental Fatigue Training Session,2020.2.4,MacIntel,60,,,,,,,,,,,,,,,,,10,,,nonTarget,d,,,,,,,,,,,,,,,,,d,1,1.259,3,7,37,9,1,,,,,,,,,,,,,,,,,,,,,,,,,,,,,,,,,,,,,,,,,,
691.095,,,,,,,,J,2024-01-19_11h29.52.711,Mental Fatigue Training Session,2020.2.4,MacIntel,60,,,,,,,,,,,,,,,,,9,,,nonTarget,d,,,,,,,,,,,,,,,,,d,1,1.298,3,8,38,8,1,,,,,,,,,,,,,,,,,,,,,,,,,,,,,,,,,,,,,,,,,,
694.614,,,,,,,,J,2024-01-19_11h29.52.711,Mental Fatigue Training Session,2020.2.4,MacIntel,60,,,,,,,,,,,,,,,,,7,,,nonTarget,d,,,,,,,,,,,,,,,,,k,0,1.011,3,9,39,6,1,,,,,,,,,,,,,,,,,,,,,,,,,,,,,,,,,,,,,,,,,,
697.849,,,,,,,,J,2024-01-19_11h29.52.711,Mental Fatigue Training Session,2020.2.4,MacIntel,60,,,,,,,,,,,,,,,,,7,,,nonTarget,d,,,,,,,,,,,,,,,,,d,1,1.169,4,0,40,6,1,,,,,,,,,,,,,,,,,,,,,,,,,,,,,,,,,,,,,,,,,,
701.233,,,,,,,,J,2024-01-19_11h29.52.711,Mental Fatigue Training Session,2020.2.4,MacIntel,60,,,,,,,,,,,,,,,,,3,,,target,k,,,,,,,,,,,,,,,,,d,0,1.63,4,1,41,2,1,,,,,,,,,,,,,,,,,,,,,,,,,,,,,,,,,,,,,,,,,,
705.067,,,,,,,,J,2024-01-19_11h29.52.711,Mental Fatigue Training Session,2020.2.4,MacIntel,60,,,,,,,,,,,,,,,,,5,,,nonTarget,d,,,,,,,,,,,,,,,,,d,1,1.448,4,2,42,4,1,,,,,,,,,,,,,,,,,,,,,,,,,,,,,,,,,,,,,,,,,,
708.718,,,,,,,,J,2024-01-19_11h29.52.711,Mental Fatigue Training Session,2020.2.4,MacIntel,60,,,,,,,,,,,,,,,,,4,,,nonTarget,d,,,,,,,,,,,,,,,,,k,0,1.502,4,3,43,3,1,,,,,,,,,,,,,,,,,,,,,,,,,,,,,,,,,,,,,,,,,,
712.437,,,,,,,,J,2024-01-19_11h29.52.711,Mental Fatigue Training Session,2020.2.4,MacIntel,60,,,,,,,,,,,,,,,,,1,,,target,k,,,,,,,,,,,,,,,,,k,1,0.73,4,4,44,0,1,,,,,,,,,,,,,,,,,,,,,,,,,,,,,,,,,,,,,,,,,,
715.388,,,,,,,,J,2024-01-19_11h29.52.711,Mental Fatigue Training Session,2020.2.4,MacIntel,60,,,,,,,,,,,,,,,,,2,,,target,k,,,,,,,,,,,,,,,,,d,0,1.882,4,5,45,1,1,,,,,,,,,,,,,,,,,,,,,,,,,,,,,,,,,,,,,,,,,,
719.489,,,,,,,,J,2024-01-19_11h29.52.711,Mental Fatigue Training Session,2020.2.4,MacIntel,60,,,,,,,,,,,,,,,,,8,,,nonTarget,d,,,,,,,,,,,,,,,,,d,1,1.28,4,6,46,7,1,,,,,,,,,,,,,,,,,,,,,,,,,,,,,,,,,,,,,,,,,,
722.991,,,,,,,,J,2024-01-19_11h29.52.711,Mental Fatigue Training Session,2020.2.4,MacIntel,60,,,,,,,,,,,,,,,,,6,,,nonTarget,d,,,,,,,,,,,,,,,,,d,1,1.713,4,7,47,5,1,,,,,,,,,,,,,,,,,,,,,,,,,,,,,,,,,,,,,,,,,,
726.925,,,,,,,,J,2024-01-19_11h29.52.711,Mental Fatigue Training Session,2020.2.4,MacIntel,60,,,,,,,,,,,,,,,,,9,,,nonTarget,d,,,,,,,,,,,,,,,,,d,1,1.13,4,8,48,8,1,,,,,,,,,,,,,,,,,,,,,,,,,,,,,,,,,,,,,,,,,,
730.276,,,,,,,,J,2024-01-19_11h29.52.711,Mental Fatigue Training Session,2020.2.4,MacIntel,60,,,,,,,,,,,,,,,,,10,,,nonTarget,d,,,,,,,,,,,,,,,,,k,0,1.076,4,9,49,9,1,,,,,,,,,,,,,,,,,,,,,,,,,,,,,,,,,,,,,,,,,,
733.562,,,,,,,,J,2024-01-19_11h29.52.711,Mental Fatigue Training Session,2020.2.4,MacIntel,60,,,,,,,,,,,,,,,,,9,,,nonTarget,d,,,,,,,,,,,,,,,,,d,1,1.164,5,0,50,8,1,,,,,,,,,,,,,,,,,,,,,,,,,,,,,,,,,,,,,,,,,,
736.945,,,,,,,,J,2024-01-19_11h29.52.711,Mental Fatigue Training Session,2020.2.4,MacIntel,60,,,,,,,,,,,,,,,,,8,,,nonTarget,d,,,,,,,,,,,,,,,,,d,1,0.964,5,1,51,7,1,,,,,,,,,,,,,,,,,,,,,,,,,,,,,,,,,,,,,,,,,,
740.129,,,,,,,,J,2024-01-19_11h29.52.711,Mental Fatigue Training Session,2020.2.4,MacIntel,60,,,,,,,,,,,,,,,,,6,,,nonTarget,d,,,,,,,,,,,,,,,,,,0,,5,2,52,5,1,,,,,,,,,,,,,,,,,,,,,,,,,,,,,,,,,,,,,,,,,,
744.331,,,,,,,,J,2024-01-19_11h29.52.711,Mental Fatigue Training Session,2020.2.4,MacIntel,60,,,,,,,,,,,,,,,,,2,,,target,k,,,,,,,,,,,,,,,,,k,1,1.748,5,3,53,1,1,,,,,,,,,,,,,,,,,,,,,,,,,,,,,,,,,,,,,,,,,,
748.3,,,,,,,,J,2024-01-19_11h29.52.711,Mental Fatigue Training Session,2020.2.4,MacIntel,60,,,,,,,,,,,,,,,,,10,,,nonTarget,d,,,,,,,,,,,,,,,,,d,1,1.347,5,4,54,9,1,,,,,,,,,,,,,,,,,,,,,,,,,,,,,,,,,,,,,,,,,,
751.867,,,,,,,,J,2024-01-19_11h29.52.711,Mental Fatigue Training Session,2020.2.4,MacIntel,60,,,,,,,,,,,,,,,,,1,,,target,k,,,,,,,,,,,,,,,,,k,1,1.8,5,5,55,0,1,,,,,,,,,,,,,,,,,,,,,,,,,,,,,,,,,,,,,,,,,,
755.886,,,,,,,,J,2024-01-19_11h29.52.711,Mental Fatigue Training Session,2020.2.4,MacIntel,60,,,,,,,,,,,,,,,,,5,,,nonTarget,d,,,,,,,,,,,,,,,,,d,1,1.028,5,6,56,4,1,,,,,,,,,,,,,,,,,,,,,,,,,,,,,,,,,,,,,,,,,,
759.138,,,,,,,,J,2024-01-19_11h29.52.711,Mental Fatigue Training Session,2020.2.4,MacIntel,60,,,,,,,,,,,,,,,,,3,,,target,k,,,,,,,,,,,,,,,,,k,1,1.594,5,7,57,2,1,,,,,,,,,,,,,,,,,,,,,,,,,,,,,,,,,,,,,,,,,,
762.956,,,,,,,,J,2024-01-19_11h29.52.711,Mental Fatigue Training Session,2020.2.4,MacIntel,60,,,,,,,,,,,,,,,,,7,,,nonTarget,d,,,,,,,,,,,,,,,,,d,1,1.128,5,8,58,6,1,,,,,,,,,,,,,,,,,,,,,,,,,,,,,,,,,,,,,,,,,,
766.306,,,,,,,,J,2024-01-19_11h29.52.711,Mental Fatigue Training Session,2020.2.4,MacIntel,60,,,,,,,,,,,,,,,,,4,,,nonTarget,d,,,,,,,,,,,,,,,,,d,1,1.299,5,9,59,3,1,,,,,,,,,,,,,,,,,,,,,,,,,,,,,,,,,,,,,,,,,,
790.615,,,,,,,,J,2024-01-19_11h29.52.711,Mental Fatigue Training Session,2020.2.4,MacIntel,60,,,,,,,,,,,,,,,,,,,,,,,,,,,,,,,,,,,,,,,,,,,,,,10.048,right,10.009,right,11.89,0,0,0,0,1,,,,,,,,,,,,,,,,,,,,,,,,,,,,,,,,
809.588,,,,,,,,J,2024-01-19_11h29.52.711,Mental Fatigue Training Session,2020.2.4,MacIntel,60,,,,,,,,,,,,,,,,,,,,,,,,,,,,,,,,,,,,,,,,,,,,,,,,,right,18.932,1,0,1,0,1,,,,,,,,,,,,,,,,,,,,,,,,,,,,,,,,
822.043,,,,,,,,J,2024-01-19_11h29.52.711,Mental Fatigue Training Session,2020.2.4,MacIntel,60,,,,,,,,,,,,,,,,,,,,,,,,,,,,,,,,,,,,,,,,,,,,,,,,,k,12.425,2,0,2,0,1,,,,,,,,,,,,,,,,,,,,,,,,,,,,,,,,
823.244,,,,,,,,J,2024-01-19_11h29.52.711,Mental Fatigue Training Session,2020.2.4,MacIntel,60,,,,,,,,,,,,,,,,,,,,,k,,,,,,,,,,,,,,,,,,,,,,,,,,,,,,,,,,,k,1,1.872,0,0,0,0,1,target,T,,,,,,,,,,,,,,,,,,,,,,
827.345,,,,,,,,J,2024-01-19_11h29.52.711,Mental Fatigue Training Session,2020.2.4,MacIntel,60,,,,,,,,,,,,,,,,,,,,,d,,,,,,,,,,,,,,,,,,,,,,,,,,,,,,,,,,,d,1,2.28,0,1,1,3,1,nonTarget,L,,,,,,,,,,,,,,,,,,,,,,
831.863,,,,,,,,J,2024-01-19_11h29.52.711,Mental Fatigue Training Session,2020.2.4,MacIntel,60,,,,,,,,,,,,,,,,,,,,,k,,,,,,,,,,,,,,,,,,,,,,,,,,,,,,,,,,,k,1,2.216,0,2,2,6,1,target,T,,,,,,,,,,,,,,,,,,,,,,
836.314,,,,,,,,J,2024-01-19_11h29.52.711,Mental Fatigue Training Session,2020.2.4,MacIntel,60,,,,,,,,,,,,,,,,,,,,,k,,,,,,,,,,,,,,,,,,,,,,,,,,,,,,,,,,,k,1,1.466,0,3,3,4,1,target,T,,,,,,,,,,,,,,,,,,,,,,
840,,,,,,,,J,2024-01-19_11h29.52.711,Mental Fatigue Training Session,2020.2.4,MacIntel,60,,,,,,,,,,,,,,,,,,,,,d,,,,,,,,,,,,,,,,,,,,,,,,,,,,,,,,,,,d,1,2.08,0,4,4,5,1,nonTarget,L,,,,,,,,,,,,,,,,,,,,,,
844.317,,,,,,,,J,2024-01-19_11h29.52.711,Mental Fatigue Training Session,2020.2.4,MacIntel,60,,,,,,,,,,,,,,,,,,,,,k,,,,,,,,,,,,,,,,,,,,,,,,,,,,,,,,,,,k,1,1.098,0,5,5,8,1,target,T,,,,,,,,,,,,,,,,,,,,,,
847.652,,,,,,,,J,2024-01-19_11h29.52.711,Mental Fatigue Training Session,2020.2.4,MacIntel,60,,,,,,,,,,,,,,,,,,,,,k,,,,,,,,,,,,,,,,,,,,,,,,,,,,,,,,,,,k,1,2.148,0,6,6,2,1,target,T,,,,,,,,,,,,,,,,,,,,,,
852.028,,,,,,,,J,2024-01-19_11h29.52.711,Mental Fatigue Training Session,2020.2.4,MacIntel,60,,,,,,,,,,,,,,,,,,,,,d,,,,,,,,,,,,,,,,,,,,,,,,,,,,,,,,,,,d,1,2.26,0,7,7,1,1,nonTarget,L,,,,,,,,,,,,,,,,,,,,,,
856.539,,,,,,,,J,2024-01-19_11h29.52.711,Mental Fatigue Training Session,2020.2.4,MacIntel,60,,,,,,,,,,,,,,,,,,,,,d,,,,,,,,,,,,,,,,,,,,,,,,,,,,,,,,,,,d,1,1.765,0,8,8,9,1,nonTarget,L,,,,,,,,,,,,,,,,,,,,,,
860.539,,,,,,,,J,2024-01-19_11h29.52.711,Mental Fatigue Training Session,2020.2.4,MacIntel,60,,,,,,,,,,,,,,,,,,,,,d,,,,,,,,,,,,,,,,,,,,,,,,,,,,,,,,,,,d,1,2.464,0,9,9,7,1,nonTarget,L,,,,,,,,,,,,,,,,,,,,,,
865.242,,,,,,,,J,2024-01-19_11h29.52.711,Mental Fatigue Training Session,2020.2.4,MacIntel,60,,,,,,,,,,,,,,,,,,,,,d,,,,,,,,,,,,,,,,,,,,,,,,,,,,,,,,,,,d,1,2.681,1,0,10,1,1,nonTarget,L,,,,,,,,,,,,,,,,,,,,,,
870.16,,,,,,,,J,2024-01-19_11h29.52.711,Mental Fatigue Training Session,2020.2.4,MacIntel,60,,,,,,,,,,,,,,,,,,,,,k,,,,,,,,,,,,,,,,,,,,,,,,,,,,,,,,,,,k,1,1.526,1,1,11,8,1,target,T,,,,,,,,,,,,,,,,,,,,,,
873.928,,,,,,,,J,2024-01-19_11h29.52.711,Mental Fatigue Training Session,2020.2.4,MacIntel,60,,,,,,,,,,,,,,,,,,,,,k,,,,,,,,,,,,,,,,,,,,,,,,,,,,,,,,,,,k,1,1.157,1,2,12,4,1,target,T,,,,,,,,,,,,,,,,,,,,,,
877.314,,,,,,,,J,2024-01-19_11h29.52.711,Mental Fatigue Training Session,2020.2.4,MacIntel,60,,,,,,,,,,,,,,,,,,,,,k,,,,,,,,,,,,,,,,,,,,,,,,,,,,,,,,,,,d,0,0.879,1,3,13,6,1,target,T,,,,,,,,,,,,,,,,,,,,,,
880.43,,,,,,,,J,2024-01-19_11h29.52.711,Mental Fatigue Training Session,2020.2.4,MacIntel,60,,,,,,,,,,,,,,,,,,,,,d,,,,,,,,,,,,,,,,,,,,,,,,,,,,,,,,,,,d,1,2.08,1,4,14,7,1,nonTarget,L,,,,,,,,,,,,,,,,,,,,,,
884.749,,,,,,,,J,2024-01-19_11h29.52.711,Mental Fatigue Training Session,2020.2.4,MacIntel,60,,,,,,,,,,,,,,,,,,,,,k,,,,,,,,,,,,,,,,,,,,,,,,,,,,,,,,,,,k,1,1.794,1,5,15,2,1,target,T,,,,,,,,,,,,,,,,,,,,,,
888.784,,,,,,,,J,2024-01-19_11h29.52.711,Mental Fatigue Training Session,2020.2.4,MacIntel,60,,,,,,,,,,,,,,,,,,,,,d,,,,,,,,,,,,,,,,,,,,,,,,,,,,,,,,,,,d,1,2.767,1,6,16,5,1,nonTarget,L,,,,,,,,,,,,,,,,,,,,,,
893.786,,,,,,,,J,2024-01-19_11h29.52.711,Mental Fatigue Training Session,2020.2.4,MacIntel,60,,,,,,,,,,,,,,,,,,,,,d,,,,,,,,,,,,,,,,,,,,,,,,,,,,,,,,,,,d,1,3.113,1,7,17,9,1,nonTarget,L,,,,,,,,,,,,,,,,,,,,,,
899.137,,,,,,,,J,2024-01-19_11h29.52.711,Mental Fatigue Training Session,2020.2.4,MacIntel,60,,,,,,,,,,,,,,,,,,,,,k,,,,,,,,,,,,,,,,,,,,,,,,,,,,,,,,,,,k,1,0.812,1,8,18,0,1,target,T,,,,,,,,,,,,,,,,,,,,,,
902.173,,,,,,,,J,2024-01-19_11h29.52.711,Mental Fatigue Training Session,2020.2.4,MacIntel,60,,,,,,,,,,,,,,,,,,,,,d,,,,,,,,,,,,,,,,,,,,,,,,,,,,,,,,,,,d,1,1.586,1,9,19,3,1,nonTarget,L,,,,,,,,,,,,,,,,,,,,,,
905.99,,,,,,,,J,2024-01-19_11h29.52.711,Mental Fatigue Training Session,2020.2.4,MacIntel,60,,,,,,,,,,,,,,,,,,,,,k,,,,,,,,,,,,,,,,,,,,,,,,,,,,,,,,,,,k,1,1.364,2,0,20,2,1,target,T,,,,,,,,,,,,,,,,,,,,,,
909.574,,,,,,,,J,2024-01-19_11h29.52.711,Mental Fatigue Training Session,2020.2.4,MacIntel,60,,,,,,,,,,,,,,,,,,,,,d,,,,,,,,,,,,,,,,,,,,,,,,,,,,,,,,,,,d,1,2.901,2,1,21,1,1,nonTarget,L,,,,,,,,,,,,,,,,,,,,,,
914.71,,,,,,,,J,2024-01-19_11h29.52.711,Mental Fatigue Training Session,2020.2.4,MacIntel,60,,,,,,,,,,,,,,,,,,,,,d,,,,,,,,,,,,,,,,,,,,,,,,,,,,,,,,,,,d,1,2.329,2,2,22,5,1,nonTarget,L,,,,,,,,,,,,,,,,,,,,,,
919.279,,,,,,,,J,2024-01-19_11h29.52.711,Mental Fatigue Training Session,2020.2.4,MacIntel,60,,,,,,,,,,,,,,,,,,,,,k,,,,,,,,,,,,,,,,,,,,,,,,,,,,,,,,,,,k,1,0.7,2,3,23,8,1,target,T,,,,,,,,,,,,,,,,,,,,,,
922.201,,,,,,,,J,2024-01-19_11h29.52.711,Mental Fatigue Training Session,2020.2.4,MacIntel,60,,,,,,,,,,,,,,,,,,,,,k,,,,,,,,,,,,,,,,,,,,,,,,,,,,,,,,,,,k,1,1.96,2,4,24,4,1,target,T,,,,,,,,,,,,,,,,,,,,,,
926.397,,,,,,,,J,2024-01-19_11h29.52.711,Mental Fatigue Training Session,2020.2.4,MacIntel,60,,,,,,,,,,,,,,,,,,,,,d,,,,,,,,,,,,,,,,,,,,,,,,,,,,,,,,,,,d,1,2.399,2,5,25,3,1,nonTarget,L,,,,,,,,,,,,,,,,,,,,,,
931.032,,,,,,,,J,2024-01-19_11h29.52.711,Mental Fatigue Training Session,2020.2.4,MacIntel,60,,,,,,,,,,,,,,,,,,,,,d,,,,,,,,,,,,,,,,,,,,,,,,,,,,,,,,,,,d,1,2.032,2,6,26,9,1,nonTarget,L,,,,,,,,,,,,,,,,,,,,,,
935.283,,,,,,,,J,2024-01-19_11h29.52.711,Mental Fatigue Training Session,2020.2.4,MacIntel,60,,,,,,,,,,,,,,,,,,,,,k,,,,,,,,,,,,,,,,,,,,,,,,,,,,,,,,,,,k,1,0.812,2,7,27,0,1,target,T,,,,,,,,,,,,,,,,,,,,,,
938.335,,,,,,,,J,2024-01-19_11h29.52.711,Mental Fatigue Training Session,2020.2.4,MacIntel,60,,,,,,,,,,,,,,,,,,,,,d,,,,,,,,,,,,,,,,,,,,,,,,,,,,,,,,,,,d,1,2.016,2,8,28,7,1,nonTarget,L,,,,,,,,,,,,,,,,,,,,,,
942.587,,,,,,,,J,2024-01-19_11h29.52.711,Mental Fatigue Training Session,2020.2.4,MacIntel,60,,,,,,,,,,,,,,,,,,,,,k,,,,,,,,,,,,,,,,,,,,,,,,,,,,,,,,,,,k,1,0.647,2,9,29,6,1,target,T,,,,,,,,,,,,,,,,,,,,,,
945.471,,,,,,,,J,2024-01-19_11h29.52.711,Mental Fatigue Training Session,2020.2.4,MacIntel,60,,,,,,,,,,,,,,,,,,,,,d,,,,,,,,,,,,,,,,,,,,,,,,,,,,,,,,,,,d,1,1.738,3,0,30,9,1,nonTarget,L,,,,,,,,,,,,,,,,,,,,,,
949.44,,,,,,,,J,2024-01-19_11h29.52.711,Mental Fatigue Training Session,2020.2.4,MacIntel,60,,,,,,,,,,,,,,,,,,,,,d,,,,,,,,,,,,,,,,,,,,,,,,,,,,,,,,,,,d,1,2.015,3,1,31,5,1,nonTarget,L,,,,,,,,,,,,,,,,,,,,,,
953.691,,,,,,,,J,2024-01-19_11h29.52.711,Mental Fatigue Training Session,2020.2.4,MacIntel,60,,,,,,,,,,,,,,,,,,,,,k,,,,,,,,,,,,,,,,,,,,,,,,,,,,,,,,,,,k,1,2.556,3,2,32,6,1,target,T,,,,,,,,,,,,,,,,,,,,,,
958.476,,,,,,,,J,2024-01-19_11h29.52.711,Mental Fatigue Training Session,2020.2.4,MacIntel,60,,,,,,,,,,,,,,,,,,,,,d,,,,,,,,,,,,,,,,,,,,,,,,,,,,,,,,,,,d,1,2.577,3,3,33,7,1,nonTarget,L,,,,,,,,,,,,,,,,,,,,,,
963.294,,,,,,,,J,2024-01-19_11h29.52.711,Mental Fatigue Training Session,2020.2.4,MacIntel,60,,,,,,,,,,,,,,,,,,,,,k,,,,,,,,,,,,,,,,,,,,,,,,,,,,,,,,,,,k,1,0.997,3,4,34,8,1,target,T,,,,,,,,,,,,,,,,,,,,,,
966.529,,,,,,,,J,2024-01-19_11h29.52.711,Mental Fatigue Training Session,2020.2.4,MacIntel,60,,,,,,,,,,,,,,,,,,,,,k,,,,,,,,,,,,,,,,,,,,,,,,,,,,,,,,,,,k,1,1.049,3,5,35,0,1,target,T,,,,,,,,,,,,,,,,,,,,,,
969.813,,,,,,,,J,2024-01-19_11h29.52.711,Mental Fatigue Training Session,2020.2.4,MacIntel,60,,,,,,,,,,,,,,,,,,,,,d,,,,,,,,,,,,,,,,,,,,,,,,,,,,,,,,,,,k,0,2.434,3,6,36,1,1,nonTarget,L,,,,,,,,,,,,,,,,,,,,,,
974.482,,,,,,,,J,2024-01-19_11h29.52.711,Mental Fatigue Training Session,2020.2.4,MacIntel,60,,,,,,,,,,,,,,,,,,,,,d,,,,,,,,,,,,,,,,,,,,,,,,,,,,,,,,,,,d,1,2.133,3,7,37,3,1,nonTarget,L,,,,,,,,,,,,,,,,,,,,,,
978.855,,,,,,,,J,2024-01-19_11h29.52.711,Mental Fatigue Training Session,2020.2.4,MacIntel,60,,,,,,,,,,,,,,,,,,,,,k,,,,,,,,,,,,,,,,,,,,,,,,,,,,,,,,,,,k,1,0.902,3,8,38,4,1,target,T,,,,,,,,,,,,,,,,,,,,,,
982,,,,,,,,J,2024-01-19_11h29.52.711,Mental Fatigue Training Session,2020.2.4,MacIntel,60,,,,,,,,,,,,,,,,,,,,,k,,,,,,,,,,,,,,,,,,,,,,,,,,,,,,,,,,,d,0,2.306,3,9,39,2,1,target,T,,,,,,,,,,,,,,,,,,,,,,
986.536,,,,,,,,J,2024-01-19_11h29.52.711,Mental Fatigue Training Session,2020.2.4,MacIntel,60,,,,,,,,,,,,,,,,,,,,,d,,,,,,,,,,,,,,,,,,,,,,,,,,,,,,,,,,,d,1,2.345,4,0,40,5,1,nonTarget,L,,,,,,,,,,,,,,,,,,,,,,
991.12,,,,,,,,J,2024-01-19_11h29.52.711,Mental Fatigue Training Session,2020.2.4,MacIntel,60,,,,,,,,,,,,,,,,,,,,,k,,,,,,,,,,,,,,,,,,,,,,,,,,,,,,,,,,,k,1,1.311,4,1,41,6,1,target,T,,,,,,,,,,,,,,,,,,,,,,
994.672,,,,,,,,J,2024-01-19_11h29.52.711,Mental Fatigue Training Session,2020.2.4,MacIntel,60,,,,,,,,,,,,,,,,,,,,,k,,,,,,,,,,,,,,,,,,,,,,,,,,,,,,,,,,,k,1,0.912,4,2,42,0,1,target,T,,,,,,,,,,,,,,,,,,,,,,
997.823,,,,,,,,J,2024-01-19_11h29.52.711,Mental Fatigue Training Session,2020.2.4,MacIntel,60,,,,,,,,,,,,,,,,,,,,,d,,,,,,,,,,,,,,,,,,,,,,,,,,,,,,,,,,,d,1,1.912,4,3,43,9,1,nonTarget,L,,,,,,,,,,,,,,,,,,,,,,
1001.974,,,,,,,,J,2024-01-19_11h29.52.711,Mental Fatigue Training Session,2020.2.4,MacIntel,60,,,,,,,,,,,,,,,,,,,,,k,,,,,,,,,,,,,,,,,,,,,,,,,,,,,,,,,,,k,1,1.162,4,4,44,2,1,target,T,,,,,,,,,,,,,,,,,,,,,,
1005.362,,,,,,,,J,2024-01-19_11h29.52.711,Mental Fatigue Training Session,2020.2.4,MacIntel,60,,,,,,,,,,,,,,,,,,,,,d,,,,,,,,,,,,,,,,,,,,,,,,,,,,,,,,,,,d,1,2.685,4,5,45,7,1,nonTarget,L,,,,,,,,,,,,,,,,,,,,,,
1010.294,,,,,,,,J,2024-01-19_11h29.52.711,Mental Fatigue Training Session,2020.2.4,MacIntel,60,,,,,,,,,,,,,,,,,,,,,k,,,,,,,,,,,,,,,,,,,,,,,,,,,,,,,,,,,k,1,1.511,4,6,46,8,1,target,T,,,,,,,,,,,,,,,,,,,,,,
1014.045,,,,,,,,J,2024-01-19_11h29.52.711,Mental Fatigue Training Session,2020.2.4,MacIntel,60,,,,,,,,,,,,,,,,,,,,,k,,,,,,,,,,,,,,,,,,,,,,,,,,,,,,,,,,,k,1,0.683,4,7,47,4,1,target,T,,,,,,,,,,,,,,,,,,,,,,
1016.963,,,,,,,,J,2024-01-19_11h29.52.711,Mental Fatigue Training Session,2020.2.4,MacIntel,60,,,,,,,,,,,,,,,,,,,,,d,,,,,,,,,,,,,,,,,,,,,,,,,,,,,,,,,,,d,1,1.86,4,8,48,1,1,nonTarget,L,,,,,,,,,,,,,,,,,,,,,,
1021.04,,,,,,,,J,2024-01-19_11h29.52.711,Mental Fatigue Training Session,2020.2.4,MacIntel,60,,,,,,,,,,,,,,,,,,,,,d,,,,,,,,,,,,,,,,,,,,,,,,,,,,,,,,,,,d,1,1.894,4,9,49,3,1,nonTarget,L,,,,,,,,,,,,,,,,,,,,,,
1025.183,,,,,,,,J,2024-01-19_11h29.52.711,Mental Fatigue Training Session,2020.2.4,MacIntel,60,,,,,,,,,,,,,,,,,,,,,d,,,,,,,,,,,,,,,,,,,,,,,,,,,,,,,,,,,d,1,1.991,5,0,50,1,1,nonTarget,L,,,,,,,,,,,,,,,,,,,,,,
1029.394,,,,,,,,J,2024-01-19_11h29.52.711,Mental Fatigue Training Session,2020.2.4,MacIntel,60,,,,,,,,,,,,,,,,,,,,,d,,,,,,,,,,,,,,,,,,,,,,,,,,,,,,,,,,,d,1,1.862,5,1,51,5,1,nonTarget,L,,,,,,,,,,,,,,,,,,,,,,
1033.478,,,,,,,,J,2024-01-19_11h29.52.711,Mental Fatigue Training Session,2020.2.4,MacIntel,60,,,,,,,,,,,,,,,,,,,,,d,,,,,,,,,,,,,,,,,,,,,,,,,,,,,,,,,,,d,1,2.013,5,2,52,9,1,nonTarget,L,,,,,,,,,,,,,,,,,,,,,,
1037.721,,,,,,,,J,2024-01-19_11h29.52.711,Mental Fatigue Training Session,2020.2.4,MacIntel,60,,,,,,,,,,,,,,,,,,,,,k,,,,,,,,,,,,,,,,,,,,,,,,,,,,,,,,,,,k,1,0.746,5,3,53,6,1,target,T,,,,,,,,,,,,,,,,,,,,,,
1040.705,,,,,,,,J,2024-01-19_11h29.52.711,Mental Fatigue Training Session,2020.2.4,MacIntel,60,,,,,,,,,,,,,,,,,,,,,d,,,,,,,,,,,,,,,,,,,,,,,,,,,,,,,,,,,d,1,1.908,5,4,54,7,1,nonTarget,L,,,,,,,,,,,,,,,,,,,,,,
1044.824,,,,,,,,J,2024-01-19_11h29.52.711,Mental Fatigue Training Session,2020.2.4,MacIntel,60,,,,,,,,,,,,,,,,,,,,,k,,,,,,,,,,,,,,,,,,,,,,,,,,,,,,,,,,,k,1,0.924,5,5,55,8,1,target,T,,,,,,,,,,,,,,,,,,,,,,
1047.975,,,,,,,,J,2024-01-19_11h29.52.711,Mental Fatigue Training Session,2020.2.4,MacIntel,60,,,,,,,,,,,,,,,,,,,,,k,,,,,,,,,,,,,,,,,,,,,,,,,,,,,,,,,,,k,1,0.875,5,6,56,4,1,target,T,,,,,,,,,,,,,,,,,,,,,,
1051.086,,,,,,,,J,2024-01-19_11h29.52.711,Mental Fatigue Training Session,2020.2.4,MacIntel,60,,,,,,,,,,,,,,,,,,,,,k,,,,,,,,,,,,,,,,,,,,,,,,,,,,,,,,,,,k,1,0.926,5,7,57,0,1,target,T,,,,,,,,,,,,,,,,,,,,,,
1054.261,,,,,,,,J,2024-01-19_11h29.52.711,Mental Fatigue Training Session,2020.2.4,MacIntel,60,,,,,,,,,,,,,,,,,,,,,d,,,,,,,,,,,,,,,,,,,,,,,,,,,,,,,,,,,d,1,2.093,5,8,58,3,1,nonTarget,L,,,,,,,,,,,,,,,,,,,,,,
1058.579,,,,,,,,J,2024-01-19_11h29.52.711,Mental Fatigue Training Session,2020.2.4,MacIntel,60,,,,,,,,,,,,,,,,,,,,,k,,,,,,,,,,,,,,,,,,,,,,,,,,,,,,,,,,,k,1,0.852,5,9,59,2,1,target,T,,,,,,,,,,,,,,,,,,,,,,
1061.662,,,,,,,,J,2024-01-19_11h29.52.711,Mental Fatigue Training Session,2020.2.4,MacIntel,60,,,,,,,,,,,,,,,,,,,,,k,,,,,,,,,,,,,,,,,,,,,,,,,,,,,,,,,,,k,1,1.331,6,0,60,6,1,target,T,,,,,,,,,,,,,,,,,,,,,,
1065.231,,,,,,,,J,2024-01-19_11h29.52.711,Mental Fatigue Training Session,2020.2.4,MacIntel,60,,,,,,,,,,,,,,,,,,,,,d,,,,,,,,,,,,,,,,,,,,,,,,,,,,,,,,,,,d,1,1.449,6,1,61,1,1,nonTarget,L,,,,,,,,,,,,,,,,,,,,,,
1068.912,,,,,,,,J,2024-01-19_11h29.52.711,Mental Fatigue Training Session,2020.2.4,MacIntel,60,,,,,,,,,,,,,,,,,,,,,k,,,,,,,,,,,,,,,,,,,,,,,,,,,,,,,,,,,k,1,0.717,6,2,62,2,1,target,T,,,,,,,,,,,,,,,,,,,,,,
1071.866,,,,,,,,J,2024-01-19_11h29.52.711,Mental Fatigue Training Session,2020.2.4,MacIntel,60,,,,,,,,,,,,,,,,,,,,,d,,,,,,,,,,,,,,,,,,,,,,,,,,,,,,,,,,,d,1,2.493,6,3,63,5,1,nonTarget,L,,,,,,,,,,,,,,,,,,,,,,
1076.592,,,,,,,,J,2024-01-19_11h29.52.711,Mental Fatigue Training Session,2020.2.4,MacIntel,60,,,,,,,,,,,,,,,,,,,,,k,,,,,,,,,,,,,,,,,,,,,,,,,,,,,,,,,,,k,1,1.421,6,4,64,8,1,target,T,,,,,,,,,,,,,,,,,,,,,,
1080.253,,,,,,,,J,2024-01-19_11h29.52.711,Mental Fatigue Training Session,2020.2.4,MacIntel,60,,,,,,,,,,,,,,,,,,,,,d,,,,,,,,,,,,,,,,,,,,,,,,,,,,,,,,,,,d,1,1.829,6,5,65,3,1,nonTarget,L,,,,,,,,,,,,,,,,,,,,,,
1084.322,,,,,,,,J,2024-01-19_11h29.52.711,Mental Fatigue Training Session,2020.2.4,MacIntel,60,,,,,,,,,,,,,,,,,,,,,k,,,,,,,,,,,,,,,,,,,,,,,,,,,,,,,,,,,k,1,0.714,6,6,66,0,1,target,T,,,,,,,,,,,,,,,,,,,,,,
1087.272,,,,,,,,J,2024-01-19_11h29.52.711,Mental Fatigue Training Session,2020.2.4,MacIntel,60,,,,,,,,,,,,,,,,,,,,,k,,,,,,,,,,,,,,,,,,,,,,,,,,,,,,,,,,,k,1,1.07,6,7,67,4,1,target,T,,,,,,,,,,,,,,,,,,,,,,
1090.573,,,,,,,,J,2024-01-19_11h29.52.711,Mental Fatigue Training Session,2020.2.4,MacIntel,60,,,,,,,,,,,,,,,,,,,,,d,,,,,,,,,,,,,,,,,,,,,,,,,,,,,,,,,,,d,1,1.596,6,8,68,9,1,nonTarget,L,,,,,,,,,,,,,,,,,,,,,,
1094.409,,,,,,,,J,2024-01-19_11h29.52.711,Mental Fatigue Training Session,2020.2.4,MacIntel,60,,,,,,,,,,,,,,,,,,,,,d,,,,,,,,,,,,,,,,,,,,,,,,,,,,,,,,,,,d,1,1.7,6,9,69,7,1,nonTarget,L,,,,,,,,,,,,,,,,,,,,,,
1098.343,,,,,,,,J,2024-01-19_11h29.52.711,Mental Fatigue Training Session,2020.2.4,MacIntel,60,,,,,,,,,,,,,,,,,,,,,d,,,,,,,,,,,,,,,,,,,,,,,,,,,,,,,,,,,d,1,1.629,7,0,70,9,1,nonTarget,L,,,,,,,,,,,,,,,,,,,,,,
1102.212,,,,,,,,J,2024-01-19_11h29.52.711,Mental Fatigue Training Session,2020.2.4,MacIntel,60,,,,,,,,,,,,,,,,,,,,,d,,,,,,,,,,,,,,,,,,,,,,,,,,,,,,,,,,,d,1,1.601,7,1,71,3,1,nonTarget,L,,,,,,,,,,,,,,,,,,,,,,
1106.046,,,,,,,,J,2024-01-19_11h29.52.711,Mental Fatigue Training Session,2020.2.4,MacIntel,60,,,,,,,,,,,,,,,,,,,,,k,,,,,,,,,,,,,,,,,,,,,,,,,,,,,,,,,,,k,1,1.192,7,2,72,2,1,target,T,,,,,,,,,,,,,,,,,,,,,,
1109.463,,,,,,,,J,2024-01-19_11h29.52.711,Mental Fatigue Training Session,2020.2.4,MacIntel,60,,,,,,,,,,,,,,,,,,,,,k,,,,,,,,,,,,,,,,,,,,,,,,,,,,,,,,,,,k,1,0.918,7,3,73,6,1,target,T,,,,,,,,,,,,,,,,,,,,,,
1112.615,,,,,,,,J,2024-01-19_11h29.52.711,Mental Fatigue Training Session,2020.2.4,MacIntel,60,,,,,,,,,,,,,,,,,,,,,k,,,,,,,,,,,,,,,,,,,,,,,,,,,,,,,,,,,k,1,0.714,7,4,74,4,1,target,T,,,,,,,,,,,,,,,,,,,,,,
1115.561,,,,,,,,J,2024-01-19_11h29.52.711,Mental Fatigue Training Session,2020.2.4,MacIntel,60,,,,,,,,,,,,,,,,,,,,,d,,,,,,,,,,,,,,,,,,,,,,,,,,,,,,,,,,,d,1,1.656,7,5,75,7,1,nonTarget,L,,,,,,,,,,,,,,,,,,,,,,
1119.451,,,,,,,,J,2024-01-19_11h29.52.711,Mental Fatigue Training Session,2020.2.4,MacIntel,60,,,,,,,,,,,,,,,,,,,,,d,,,,,,,,,,,,,,,,,,,,,,,,,,,,,,,,,,,d,1,2.246,7,6,76,1,1,nonTarget,L,,,,,,,,,,,,,,,,,,,,,,
1123.92,,,,,,,,J,2024-01-19_11h29.52.711,Mental Fatigue Training Session,2020.2.4,MacIntel,60,,,,,,,,,,,,,,,,,,,,,k,,,,,,,,,,,,,,,,,,,,,,,,,,,,,,,,,,,k,1,0.942,7,7,77,8,1,target,T,,,,,,,,,,,,,,,,,,,,,,
1151.406,,,,,,,,J,2024-01-19_11h29.52.711,Mental Fatigue Training Session,2020.2.4,MacIntel,60,,,,,,,,,,,,,,,,,,,,,,,,,,,,,,,,,,,,,,,,,,,,,,,,,,,,,,,,,,,,,,,,,,6.937,right,6.904,right,18.509,0,0,0,0,1,,,,,,,,,,,,
1164.79,,,,,,,,J,2024-01-19_11h29.52.711,Mental Fatigue Training Session,2020.2.4,MacIntel,60,,,,,,,,,,,,,,,,,,,,,,,,,,,,,,,,,,,,,,,,,,,,,,,,,,,,,,,,,,,,,,,,,,,,,right,13.308,1,0,1,0,1,,,,,,,,,,,,
1182.907,,,,,,,,J,2024-01-19_11h29.52.711,Mental Fatigue Training Session,2020.2.4,MacIntel,60,,,,,,,,,,,,,,,,,,,,,,,,,,,,,,,,,,,,,,,,,,,,,,,,,,,,,,,,,,,,,,,,,,,,,right,18.063,2,0,2,0,1,,,,,,,,,,,,
1198.947,,,,,,,,J,2024-01-19_11h29.52.711,Mental Fatigue Training Session,2020.2.4,MacIntel,60,,,,,,,,,,,,,,,,,,,,,,,,,,,,,,,,,,,,,,,,,,,,,,,,,,,,,,,,,,,,,,,,,,,,,right,15.984,3,0,3,0,1,,,,,,,,,,,,
1210.116,,,,,,,,J,2024-01-19_11h29.52.711,Mental Fatigue Training Session,2020.2.4,MacIntel,60,,,,,,,,,,,,,,,,,,,,,,,,,,,,,,,,,,,,,,,,,,,,,,,,,,,,,,,,,,,,,,,,,,,,,k,11.11,4,0,4,0,1,,,,,,,,,,,,
1211.635,,,,,,,,J,2024-01-19_11h29.52.711,Mental Fatigue Training Session,2020.2.4,MacIntel,60,,,,,,,,,,,,,,,,,,,,,k,,,,,,,,,,,,,,,,,,,,,,,,,,,,,,,,,,,,,,,,,,,,,,,,,,,,,,,k,1,3.31,0,0,0,82,1,43_100.jpg,100,,
1217.169,,,,,,,,J,2024-01-19_11h29.52.711,Mental Fatigue Training Session,2020.2.4,MacIntel,60,,,,,,,,,,,,,,,,,,,,,d,,,,,,,,,,,,,,,,,,,,,,,,,,,,,,,,,,,,,,,,,,,,,,,,,,,,,,,d,1,3.941,0,1,1,11,1,8_100_R.jpg,100,,
1223.338,,,,,,,,J,2024-01-19_11h29.52.711,Mental Fatigue Training Session,2020.2.4,MacIntel,60,,,,,,,,,,,,,,,,,,,,,d,,,,,,,,,,,,,,,,,,,,,,,,,,,,,,,,,,,,,,,,,,,,,,,,,,,,,,,d,1,3.577,0,2,2,71,1,31_50_R.jpg,50,,
1229.138,,,,,,,,J,2024-01-19_11h29.52.711,Mental Fatigue Training Session,2020.2.4,MacIntel,60,,,,,,,,,,,,,,,,,,,,,d,,,,,,,,,,,,,,,,,,,,,,,,,,,,,,,,,,,,,,,,,,,,,,,,,,,,,,,d,1,2.424,0,3,3,95,1,48_50_R.jpg,50,,
1233.779,,,,,,,,J,2024-01-19_11h29.52.711,Mental Fatigue Training Session,2020.2.4,MacIntel,60,,,,,,,,,,,,,,,,,,,,,d,,,,,,,,,,,,,,,,,,,,,,,,,,,,,,,,,,,,,,,,,,,,,,,,,,,,,,,d,1,1.882,0,4,4,31,1,21_50_R.jpg,50,,
1237.889,,,,,,,,J,2024-01-19_11h29.52.711,Mental Fatigue Training Session,2020.2.4,MacIntel,60,,,,,,,,,,,,,,,,,,,,,d,,,,,,,,,,,,,,,,,,,,,,,,,,,,,,,,,,,,,,,,,,,,,,,,,,,,,,,d,1,1.709,0,5,5,73,1,39_0_R.jpg,0,,
1241.827,,,,,,,,J,2024-01-19_11h29.52.711,Mental Fatigue Training Session,2020.2.4,MacIntel,60,,,,,,,,,,,,,,,,,,,,,k,,,,,,,,,,,,,,,,,,,,,,,,,,,,,,,,,,,,,,,,,,,,,,,,,,,,,,,k,1,1.525,0,6,6,10,1,8_100.jpg,100,,
1245.563,,,,,,,,J,2024-01-19_11h29.52.711,Mental Fatigue Training Session,2020.2.4,MacIntel,60,,,,,,,,,,,,,,,,,,,,,d,,,,,,,,,,,,,,,,,,,,,,,,,,,,,,,,,,,,,,,,,,,,,,,,,,,,,,,d,1,1.943,0,7,7,41,1,25_0_R.jpg,0,,
1249.731,,,,,,,,J,2024-01-19_11h29.52.711,Mental Fatigue Training Session,2020.2.4,MacIntel,60,,,,,,,,,,,,,,,,,,,,,k,,,,,,,,,,,,,,,,,,,,,,,,,,,,,,,,,,,,,,,,,,,,,,,,,,,,,,,k,1,3.53,0,8,8,70,1,31_50.jpg,50,,
1255.464,,,,,,,,J,2024-01-19_11h29.52.711,Mental Fatigue Training Session,2020.2.4,MacIntel,60,,,,,,,,,,,,,,,,,,,,,d,,,,,,,,,,,,,,,,,,,,,,,,,,,,,,,,,,,,,,,,,,,,,,,,,,,,,,,k,0,2.819,0,9,9,29,1,21_150_R.jpg,150,,
1260.502,,,,,,,,J,2024-01-19_11h29.52.711,Mental Fatigue Training Session,2020.2.4,MacIntel,60,,,,,,,,,,,,,,,,,,,,,d,,,,,,,,,,,,,,,,,,,,,,,,,,,,,,,,,,,,,,,,,,,,,,,,,,,,,,,d,1,3.511,0,10,10,23,1,19_50_R.jpg,50,,
1266.237,,,,,,,,J,2024-01-19_11h29.52.711,Mental Fatigue Training Session,2020.2.4,MacIntel,60,,,,,,,,,,,,,,,,,,,,,d,,,,,,,,,,,,,,,,,,,,,,,,,,,,,,,,,,,,,,,,,,,,,,,,,,,,,,,k,0,1.56,0,11,11,3,1,1_100_R.jpg,100,,
1270.022,,,,,,,,J,2024-01-19_11h29.52.711,Mental Fatigue Training Session,2020.2.4,MacIntel,60,,,,,,,,,,,,,,,,,,,,,d,,,,,,,,,,,,,,,,,,,,,,,,,,,,,,,,,,,,,,,,,,,,,,,,,,,,,,,k,0,5.858,0,12,12,53,1,29_150_R.jpg,150,,
1278.108,,,,,,,,J,2024-01-19_11h29.52.711,Mental Fatigue Training Session,2020.2.4,MacIntel,60,,,,,,,,,,,,,,,,,,,,,d,,,,,,,,,,,,,,,,,,,,,,,,,,,,,,,,,,,,,,,,,,,,,,,,,,,,,,,d,1,1.642,0,13,13,89,1,48_0_R.jpg,0,,
1281.976,,,,,,,,J,2024-01-19_11h29.52.711,Mental Fatigue Training Session,2020.2.4,MacIntel,60,,,,,,,,,,,,,,,,,,,,,k,,,,,,,,,,,,,,,,,,,,,,,,,,,,,,,,,,,,,,,,,,,,,,,,,,,,,,,k,1,2.111,0,14,14,72,1,39_0.jpg,0,,
1286.311,,,,,,,,J,2024-01-19_11h29.52.711,Mental Fatigue Training Session,2020.2.4,MacIntel,60,,,,,,,,,,,,,,,,,,,,,d,,,,,,,,,,,,,,,,,,,,,,,,,,,,,,,,,,,,,,,,,,,,,,,,,,,,,,,d,1,4.645,0,15,15,67,1,31_100_R.jpg,100,,
1293.181,,,,,,,,J,2024-01-19_11h29.52.711,Mental Fatigue Training Session,2020.2.4,MacIntel,60,,,,,,,,,,,,,,,,,,,,,k,,,,,,,,,,,,,,,,,,,,,,,,,,,,,,,,,,,,,,,,,,,,,,,,,,,,,,,k,1,2.891,0,16,16,76,1,39_150.jpg,150,,
1298.295,,,,,,,,J,2024-01-19_11h29.52.711,Mental Fatigue Training Session,2020.2.4,MacIntel,60,,,,,,,,,,,,,,,,,,,,,d,,,,,,,,,,,,,,,,,,,,,,,,,,,,,,,,,,,,,,,,,,,,,,,,,,,,,,,k,0,6.085,0,17,17,35,1,23_100_R.jpg,100,,
1306.601,,,,,,,,J,2024-01-19_11h29.52.711,Mental Fatigue Training Session,2020.2.4,MacIntel,60,,,,,,,,,,,,,,,,,,,,,d,,,,,,,,,,,,,,,,,,,,,,,,,,,,,,,,,,,,,,,,,,,,,,,,,,,,,,,k,0,7.166,0,18,18,91,1,48_100_R.jpg,100,,
1315.988,,,,,,,,J,2024-01-19_11h29.52.711,Mental Fatigue Training Session,2020.2.4,MacIntel,60,,,,,,,,,,,,,,,,,,,,,k,,,,,,,,,,,,,,,,,,,,,,,,,,,,,,,,,,,,,,,,,,,,,,,,,,,,,,,k,1,5.029,0,19,19,4,1,1_150.jpg,150,,
1323.241,,,,,,,,J,2024-01-19_11h29.52.711,Mental Fatigue Training Session,2020.2.4,MacIntel,60,,,,,,,,,,,,,,,,,,,,,k,,,,,,,,,,,,,,,,,,,,,,,,,,,,,,,,,,,,,,,,,,,,,,,,,,,,,,,k,1,1.94,0,20,20,32,1,23_0.jpg,0,,
1327.393,,,,,,,,J,2024-01-19_11h29.52.711,Mental Fatigue Training Session,2020.2.4,MacIntel,60,,,,,,,,,,,,,,,,,,,,,d,,,,,,,,,,,,,,,,,,,,,,,,,,,,,,,,,,,,,,,,,,,,,,,,,,,,,,,k,0,4.144,0,21,21,77,1,39_150_R.jpg,150,,
1333.762,,,,,,,,J,2024-01-19_11h29.52.711,Mental Fatigue Training Session,2020.2.4,MacIntel,60,,,,,,,,,,,,,,,,,,,,,k,,,,,,,,,,,,,,,,,,,,,,,,,,,,,,,,,,,,,,,,,,,,,,,,,,,,,,,k,1,6.165,0,22,22,46,1,25_50.jpg,50,,
1342.148,,,,,,,,J,2024-01-19_11h29.52.711,Mental Fatigue Training Session,2020.2.4,MacIntel,60,,,,,,,,,,,,,,,,,,,,,k,,,,,,,,,,,,,,,,,,,,,,,,,,,,,,,,,,,,,,,,,,,,,,,,,,,,,,,d,0,6.496,0,23,23,68,1,31_150.jpg,150,,
1350.867,,,,,,,,J,2024-01-19_11h29.52.711,Mental Fatigue Training Session,2020.2.4,MacIntel,60,,,,,,,,,,,,,,,,,,,,,k,,,,,,,,,,,,,,,,,,,,,,,,,,,,,,,,,,,,,,,,,,,,,,,,,,,,,,,k,1,5.317,0,24,24,12,1,8_150.jpg,150,,
1358.393,,,,,,,,J,2024-01-19_11h29.52.711,Mental Fatigue Training Session,2020.2.4,MacIntel,60,,,,,,,,,,,,,,,,,,,,,d,,,,,,,,,,,,,,,,,,,,,,,,,,,,,,,,,,,,,,,,,,,,,,,,,,,,,,,k,0,6.542,0,25,25,59,1,30_100_R.jpg,100,,
1367.157,,,,,,,,J,2024-01-19_11h29.52.711,Mental Fatigue Training Session,2020.2.4,MacIntel,60,,,,,,,,,,,,,,,,,,,,,k,,,,,,,,,,,,,,,,,,,,,,,,,,,,,,,,,,,,,,,,,,,,,,,,,,,,,,,k,1,3.041,0,26,26,18,1,19_100.jpg,100,,
1372.426,,,,,,,,J,2024-01-19_11h29.52.711,Mental Fatigue Training Session,2020.2.4,MacIntel,60,,,,,,,,,,,,,,,,,,,,,d,,,,,,,,,,,,,,,,,,,,,,,,,,,,,,,,,,,,,,,,,,,,,,,,,,,,,,,k,0,6.663,0,27,27,69,1,31_150_R.jpg,150,,
1381.306,,,,,,,,J,2024-01-19_11h29.52.711,Mental Fatigue Training Session,2020.2.4,MacIntel,60,,,,,,,,,,,,,,,,,,,,,d,,,,,,,,,,,,,,,,,,,,,,,,,,,,,,,,,,,,,,,,,,,,,,,,,,,,,,,d,1,3.775,0,28,28,85,1,43_150_R.jpg,150,,
1387.298,,,,,,,,J,2024-01-19_11h29.52.711,Mental Fatigue Training Session,2020.2.4,MacIntel,60,,,,,,,,,,,,,,,,,,,,,k,,,,,,,,,,,,,,,,,,,,,,,,,,,,,,,,,,,,,,,,,,,,,,,,,,,,,,,,0,,0,29,29,42,1,25_100.jpg,100,,
1397.001,,,,,,,,J,2024-01-19_11h29.52.711,Mental Fatigue Training Session,2020.2.4,MacIntel,60,,,,,,,,,,,,,,,,,,,,,k,,,,,,,,,,,,,,,,,,,,,,,,,,,,,,,,,,,,,,,,,,,,,,,,,,,,,,,k,1,1.867,0,30,30,64,1,31_0.jpg,0,,
1401.069,,,,,,,,J,2024-01-19_11h29.52.711,Mental Fatigue Training Session,2020.2.4,MacIntel,60,,,,,,,,,,,,,,,,,,,,,k,,,,,,,,,,,,,,,,,,,,,,,,,,,,,,,,,,,,,,,,,,,,,,,,,,,,,,,d,0,3.523,0,31,31,44,1,25_150.jpg,150,,
1406.805,,,,,,,,J,2024-01-19_11h29.52.711,Mental Fatigue Training Session,2020.2.4,MacIntel,60,,,,,,,,,,,,,,,,,,,,,d,,,,,,,,,,,,,,,,,,,,,,,,,,,,,,,,,,,,,,,,,,,,,,,,,,,,,,,k,0,3.191,0,32,32,65,1,31_0_R.jpg,0,,
1412.222,,,,,,,,J,2024-01-19_11h29.52.711,Mental Fatigue Training Session,2020.2.4,MacIntel,60,,,,,,,,,,,,,,,,,,,,,d,,,,,,,,,,,,,,,,,,,,,,,,,,,,,,,,,,,,,,,,,,,,,,,,,,,,,,,d,1,3.796,0,33,33,79,1,39_50_R.jpg,50,,
1418.242,,,,,,,,J,2024-01-19_11h29.52.711,Mental Fatigue Training Session,2020.2.4,MacIntel,60,,,,,,,,,,,,,,,,,,,,,d,,,,,,,,,,,,,,,,,,,,,,,,,,,,,,,,,,,,,,,,,,,,,,,,,,,,,,,d,1,1.6,0,34,34,81,1,43_0_R.jpg,0,,
1422.056,,,,,,,,J,2024-01-19_11h29.52.711,Mental Fatigue Training Session,2020.2.4,MacIntel,60,,,,,,,,,,,,,,,,,,,,,d,,,,,,,,,,,,,,,,,,,,,,,,,,,,,,,,,,,,,,,,,,,,,,,,,,,,,,,d,1,2.578,0,35,35,9,1,8_0_R.jpg,0,,
1426.861,,,,,,,,J,2024-01-19_11h29.52.711,Mental Fatigue Training Session,2020.2.4,MacIntel,60,,,,,,,,,,,,,,,,,,,,,d,,,,,,,,,,,,,,,,,,,,,,,,,,,,,,,,,,,,,,,,,,,,,,,,,,,,,,,d,1,4.476,0,36,36,19,1,19_100_R.jpg,100,,
1433.554,,,,,,,,J,2024-01-19_11h29.52.711,Mental Fatigue Training Session,2020.2.4,MacIntel,60,,,,,,,,,,,,,,,,,,,,,k,,,,,,,,,,,,,,,,,,,,,,,,,,,,,,,,,,,,,,,,,,,,,,,,,,,,,,,k,1,5.063,0,37,37,86,1,43_50.jpg,50,,
1440.85,,,,,,,,J,2024-01-19_11h29.52.711,Mental Fatigue Training Session,2020.2.4,MacIntel,60,,,,,,,,,,,,,,,,,,,,,d,,,,,,,,,,,,,,,,,,,,,,,,,,,,,,,,,,,,,,,,,,,,,,,,,,,,,,,k,0,3.361,0,38,38,61,1,30_150_R.jpg,150,,
1446.423,,,,,,,,J,2024-01-19_11h29.52.711,Mental Fatigue Training Session,2020.2.4,MacIntel,60,,,,,,,,,,,,,,,,,,,,,k,,,,,,,,,,,,,,,,,,,,,,,,,,,,,,,,,,,,,,,,,,,,,,,,,,,,,,,k,1,4.782,0,39,39,66,1,31_100.jpg,100,,
1453.438,,,,,,,,J,2024-01-19_11h29.52.711,Mental Fatigue Training Session,2020.2.4,MacIntel,60,,,,,,,,,,,,,,,,,,,,,d,,,,,,,,,,,,,,,,,,,,,,,,,,,,,,,,,,,,,,,,,,,,,,,,,,,,,,,d,1,2.581,0,40,40,49,1,29_0_R.jpg,0,,
1458.224,,,,,,,,J,2024-01-19_11h29.52.711,Mental Fatigue Training Session,2020.2.4,MacIntel,60,,,,,,,,,,,,,,,,,,,,,k,,,,,,,,,,,,,,,,,,,,,,,,,,,,,,,,,,,,,,,,,,,,,,,,,,,,,,,k,1,1.512,0,41,41,16,1,19_0.jpg,0,,
1461.958,,,,,,,,J,2024-01-19_11h29.52.711,Mental Fatigue Training Session,2020.2.4,MacIntel,60,,,,,,,,,,,,,,,,,,,,,k,,,,,,,,,,,,,,,,,,,,,,,,,,,,,,,,,,,,,,,,,,,,,,,,,,,,,,,k,1,3.649,0,42,42,20,1,19_150.jpg,150,,
1467.811,,,,,,,,J,2024-01-19_11h29.52.711,Mental Fatigue Training Session,2020.2.4,MacIntel,60,,,,,,,,,,,,,,,,,,,,,k,,,,,,,,,,,,,,,,,,,,,,,,,,,,,,,,,,,,,,,,,,,,,,,,,,,,,,,d,0,3.745,0,43,43,84,1,43_150.jpg,150,,
1473.78,,,,,,,,J,2024-01-19_11h29.52.711,Mental Fatigue Training Session,2020.2.4,MacIntel,60,,,,,,,,,,,,,,,,,,,,,k,,,,,,,,,,,,,,,,,,,,,,,,,,,,,,,,,,,,,,,,,,,,,,,,,,,,,,,k,1,2.163,0,44,44,22,1,19_50.jpg,50,,
1478.164,,,,,,,,J,2024-01-19_11h29.52.711,Mental Fatigue Training Session,2020.2.4,MacIntel,60,,,,,,,,,,,,,,,,,,,,,d,,,,,,,,,,,,,,,,,,,,,,,,,,,,,,,,,,,,,,,,,,,,,,,,,,,,,,,d,1,3.911,0,45,45,21,1,19_150_R.jpg,150,,
1484.3,,,,,,,,J,2024-01-19_11h29.52.711,Mental Fatigue Training Session,2020.2.4,MacIntel,60,,,,,,,,,,,,,,,,,,,,,k,,,,,,,,,,,,,,,,,,,,,,,,,,,,,,,,,,,,,,,,,,,,,,,,,,,,,,,k,1,1.476,0,46,46,24,1,21_0.jpg,0,,
1487.986,,,,,,,,J,2024-01-19_11h29.52.711,Mental Fatigue Training Session,2020.2.4,MacIntel,60,,,,,,,,,,,,,,,,,,,,,d,,,,,,,,,,,,,,,,,,,,,,,,,,,,,,,,,,,,,,,,,,,,,,,,,,,,,,,d,1,3.36,0,47,47,43,1,25_100_R.jpg,100,,
1493.569,,,,,,,,J,2024-01-19_11h29.52.711,Mental Fatigue Training Session,2020.2.4,MacIntel,60,,,,,,,,,,,,,,,,,,,,,d,,,,,,,,,,,,,,,,,,,,,,,,,,,,,,,,,,,,,,,,,,,,,,,,,,,,,,,d,1,2.313,0,48,48,7,1,1_50_R.jpg,50,,
1498.088,,,,,,,,J,2024-01-19_11h29.52.711,Mental Fatigue Training Session,2020.2.4,MacIntel,60,,,,,,,,,,,,,,,,,,,,,k,,,,,,,,,,,,,,,,,,,,,,,,,,,,,,,,,,,,,,,,,,,,,,,,,,,,,,,k,1,2.788,0,49,49,28,1,21_150.jpg,150,,
1503.103,,,,,,,,J,2024-01-19_11h29.52.711,Mental Fatigue Training Session,2020.2.4,MacIntel,60,,,,,,,,,,,,,,,,,,,,,k,,,,,,,,,,,,,,,,,,,,,,,,,,,,,,,,,,,,,,,,,,,,,,,,,,,,,,,k,1,1.553,0,50,50,88,1,48_0.jpg,0,,
1506.874,,,,,,,,J,2024-01-19_11h29.52.711,Mental Fatigue Training Session,2020.2.4,MacIntel,60,,,,,,,,,,,,,,,,,,,,,k,,,,,,,,,,,,,,,,,,,,,,,,,,,,,,,,,,,,,,,,,,,,,,,,,,,,,,,k,1,4.844,0,51,51,52,1,29_150.jpg,150,,
1513.943,,,,,,,,J,2024-01-19_11h29.52.711,Mental Fatigue Training Session,2020.2.4,MacIntel,60,,,,,,,,,,,,,,,,,,,,,k,,,,,,,,,,,,,,,,,,,,,,,,,,,,,,,,,,,,,,,,,,,,,,,,,,,,,,,k,1,1.996,0,52,52,78,1,39_50.jpg,50,,
1521.533,,,,,,,,J,2024-01-19_11h29.52.711,Mental Fatigue Training Session,2020.2.4,MacIntel,60,,,,,,,,,,,,,,,,,,,,,,,,,,,,,,,,,,,,,,,,,,,,,,,,,,,,,,,,,,,,,,,,,,,,,,,,,,,,,,,,,,,,,,space,4.536
