elapsed.time,key_resp.keys,key_resp.rt,instrLoop.thisRepN,instrLoop.thisTrialN,instrLoop.thisN,instrLoop.thisIndex,instrLoop.ran,participant,date,expName,psychopyVersion,OS,frameRate,key_resp_2.keys,key_resp_2.rt,instrAXCPTLoop.thisRepN,instrAXCPTLoop.thisTrialN,instrAXCPTLoop.thisN,instrAXCPTLoop.thisIndex,instrAXCPTLoop.ran,AXCPT_resp.keys,AXCPT_resp.corr,AXCPT_resp.rt,AXCPTtrialsLoop.thisRepN,AXCPTtrialsLoop.thisTrialN,AXCPTtrialsLoop.thisN,AXCPTtrialsLoop.thisIndex,AXCPTtrialsLoop.ran,trialNumber,trial,cueType,probeType,trialType,corrResponse,break1.duration,restBreak1_key_resp.keys,restBreak1_key_resp.rt,key_resp_3.keys,key_resp_3.rt,instrNBackLoop.thisRepN,instrNBackLoop.thisTrialN,instrNBackLoop.thisN,instrNBackLoop.thisIndex,instrNBackLoop.ran,NBack_resp_1.keys,NBack_resp_1.rt,NBackTargetLoop.thisRepN,NBackTargetLoop.thisTrialN,NBackTargetLoop.thisN,NBackTargetLoop.thisIndex,NBackTargetLoop.ran,NBack_resp_2.keys,NBack_resp_2.corr,NBack_resp_2.rt,NBackTrialsLoop.thisRepN,NBackTrialsLoop.thisTrialN,NBackTrialsLoop.thisN,NBackTrialsLoop.thisIndex,NBackTrialsLoop.ran,break2.duration,restBreak2_key_resp.keys,restBreak2_key_resp.rt,key_resp_4.keys,key_resp_4.rt,instrSearchLoop.thisRepN,instrSearchLoop.thisTrialN,instrSearchLoop.thisN,instrSearchLoop.thisIndex,instrSearchLoop.ran,key_resp_6.keys,key_resp_6.corr,key_resp_6.rt,searchLoop.thisRepN,searchLoop.thisTrialN,searchLoop.thisN,searchLoop.thisIndex,searchLoop.ran,cond,targetLetter,break3.duration,restBreak3_key_resp.keys,restBreak3_key_resp.rt,key_resp_5.keys,key_resp_5.rt,instrMentRotaLoop.thisRepN,instrMentRotaLoop.thisTrialN,instrMentRotaLoop.thisN,instrMentRotaLoop.thisIndex,instrMentRotaLoop.ran,MROT_resp.keys,MROT_resp.corr,MROT_resp.rt,mentRotTrialsLooop.thisRepN,mentRotTrialsLooop.thisTrialN,mentRotTrialsLooop.thisN,mentRotTrialsLooop.thisIndex,mentRotTrialsLooop.ran,imagefile,orientation,end_resp.keys,end_resp.rt
11.1,right,11.01,0,0,0,0,1,JR,2024-01-21_16h18.11.892,Mental Fatigue Training Session,2020.2.4,MacIntel,60,,,,,,,,,,,,,,,,,,,,,,,,,,,,,,,,,,,,,,,,,,,,,,,,,,,,,,,,,,,,,,,,,,,,,,,,,,,,,,,,,,,,,,,,
30.211,right,19.085,1,0,1,0,1,JR,2024-01-21_16h18.11.892,Mental Fatigue Training Session,2020.2.4,MacIntel,60,,,,,,,,,,,,,,,,,,,,,,,,,,,,,,,,,,,,,,,,,,,,,,,,,,,,,,,,,,,,,,,,,,,,,,,,,,,,,,,,,,,,,,,,
49.278,right,19.041,2,0,2,0,1,JR,2024-01-21_16h18.11.892,Mental Fatigue Training Session,2020.2.4,MacIntel,60,,,,,,,,,,,,,,,,,,,,,,,,,,,,,,,,,,,,,,,,,,,,,,,,,,,,,,,,,,,,,,,,,,,,,,,,,,,,,,,,,,,,,,,,
92.548,,,,,,,,JR,2024-01-21_16h18.11.892,Mental Fatigue Training Session,2020.2.4,MacIntel,60,right,43.228,0,0,0,0,1,,,,,,,,,,,,,,,,,,,,,,,,,,,,,,,,,,,,,,,,,,,,,,,,,,,,,,,,,,,,,,,,,,,,,,,,,,,,,,,,,
144.715,,,,,,,,JR,2024-01-21_16h18.11.892,Mental Fatigue Training Session,2020.2.4,MacIntel,60,left,52.135,1,0,1,0,1,,,,,,,,,,,,,,,,,,,,,,,,,,,,,,,,,,,,,,,,,,,,,,,,,,,,,,,,,,,,,,,,,,,,,,,,,,,,,,,,,
148.681,,,,,,,,JR,2024-01-21_16h18.11.892,Mental Fatigue Training Session,2020.2.4,MacIntel,60,right,3.938,2,0,2,0,1,,,,,,,,,,,,,,,,,,,,,,,,,,,,,,,,,,,,,,,,,,,,,,,,,,,,,,,,,,,,,,,,,,,,,,,,,,,,,,,,,
285.954,,,,,,,,JR,2024-01-21_16h18.11.892,Mental Fatigue Training Session,2020.2.4,MacIntel,60,right,137.226,3,0,3,0,1,,,,,,,,,,,,,,,,,,,,,,,,,,,,,,,,,,,,,,,,,,,,,,,,,,,,,,,,,,,,,,,,,,,,,,,,,,,,,,,,,
292.02,,,,,,,,JR,2024-01-21_16h18.11.892,Mental Fatigue Training Session,2020.2.4,MacIntel,60,left,6.039,4,0,4,0,1,,,,,,,,,,,,,,,,,,,,,,,,,,,,,,,,,,,,,,,,,,,,,,,,,,,,,,,,,,,,,,,,,,,,,,,,,,,,,,,,,
315.355,,,,,,,,JR,2024-01-21_16h18.11.892,Mental Fatigue Training Session,2020.2.4,MacIntel,60,right,23.301,5,0,5,0,1,,,,,,,,,,,,,,,,,,,,,,,,,,,,,,,,,,,,,,,,,,,,,,,,,,,,,,,,,,,,,,,,,,,,,,,,,,,,,,,,,
316.555,,,,,,,,JR,2024-01-21_16h18.11.892,Mental Fatigue Training Session,2020.2.4,MacIntel,60,right,1.151,6,0,6,0,1,,,,,,,,,,,,,,,,,,,,,,,,,,,,,,,,,,,,,,,,,,,,,,,,,,,,,,,,,,,,,,,,,,,,,,,,,,,,,,,,,
317.521,,,,,,,,JR,2024-01-21_16h18.11.892,Mental Fatigue Training Session,2020.2.4,MacIntel,60,k,0.944,7,0,7,0,1,,,,,,,,,,,,,,,,,,,,,,,,,,,,,,,,,,,,,,,,,,,,,,,,,,,,,,,,,,,,,,,,,,,,,,,,,,,,,,,,,
318.755,,,,,,,,JR,2024-01-21_16h18.11.892,Mental Fatigue Training Session,2020.2.4,MacIntel,60,,,,,,,,k,1,0.514,0,0,0,5,1,6,AX,A,X,target,k,,,,,,,,,,,,,,,,,,,,,,,,,,,,,,,,,,,,,,,,,,,,,,,,,,,,,,,,,,,,,,,,,,,
325.989,,,,,,,,JR,2024-01-21_16h18.11.892,Mental Fatigue Training Session,2020.2.4,MacIntel,60,,,,,,,,k,1,1.014,0,1,1,2,1,3,AX,A,X,target,k,,,,,,,,,,,,,,,,,,,,,,,,,,,,,,,,,,,,,,,,,,,,,,,,,,,,,,,,,,,,,,,,,,,
333.722,,,,,,,,JR,2024-01-21_16h18.11.892,Mental Fatigue Training Session,2020.2.4,MacIntel,60,,,,,,,,k,1,0.621,0,2,2,0,1,1,AX,A,X,target,k,,,,,,,,,,,,,,,,,,,,,,,,,,,,,,,,,,,,,,,,,,,,,,,,,,,,,,,,,,,,,,,,,,,
341.056,,,,,,,,JR,2024-01-21_16h18.11.892,Mental Fatigue Training Session,2020.2.4,MacIntel,60,,,,,,,,d,1,0.403,0,3,3,8,1,9,AY,A,Y,cueWrong,d,,,,,,,,,,,,,,,,,,,,,,,,,,,,,,,,,,,,,,,,,,,,,,,,,,,,,,,,,,,,,,,,,,,
348.189,,,,,,,,JR,2024-01-21_16h18.11.892,Mental Fatigue Training Session,2020.2.4,MacIntel,60,,,,,,,,d,1,0.615,0,4,4,9,1,10,BY,B,Y,bothWrong,d,,,,,,,,,,,,,,,,,,,,,,,,,,,,,,,,,,,,,,,,,,,,,,,,,,,,,,,,,,,,,,,,,,,
355.523,,,,,,,,JR,2024-01-21_16h18.11.892,Mental Fatigue Training Session,2020.2.4,MacIntel,60,,,,,,,,d,1,0.821,0,5,5,7,1,8,BX,B,X,probeWrong,d,,,,,,,,,,,,,,,,,,,,,,,,,,,,,,,,,,,,,,,,,,,,,,,,,,,,,,,,,,,,,,,,,,,
363.057,,,,,,,,JR,2024-01-21_16h18.11.892,Mental Fatigue Training Session,2020.2.4,MacIntel,60,,,,,,,,k,1,0.427,0,6,6,6,1,7,AX,A,X,target,k,,,,,,,,,,,,,,,,,,,,,,,,,,,,,,,,,,,,,,,,,,,,,,,,,,,,,,,,,,,,,,,,,,,
370.224,,,,,,,,JR,2024-01-21_16h18.11.892,Mental Fatigue Training Session,2020.2.4,MacIntel,60,,,,,,,,k,1,0.566,0,7,7,1,1,2,AX,A,X,target,k,,,,,,,,,,,,,,,,,,,,,,,,,,,,,,,,,,,,,,,,,,,,,,,,,,,,,,,,,,,,,,,,,,,
377.524,,,,,,,,JR,2024-01-21_16h18.11.892,Mental Fatigue Training Session,2020.2.4,MacIntel,60,,,,,,,,k,1,0.45,0,8,8,3,1,4,AX,A,X,target,k,,,,,,,,,,,,,,,,,,,,,,,,,,,,,,,,,,,,,,,,,,,,,,,,,,,,,,,,,,,,,,,,,,,
384.691,,,,,,,,JR,2024-01-21_16h18.11.892,Mental Fatigue Training Session,2020.2.4,MacIntel,60,,,,,,,,k,1,0.507,0,9,9,4,1,5,AX,A,X,target,k,,,,,,,,,,,,,,,,,,,,,,,,,,,,,,,,,,,,,,,,,,,,,,,,,,,,,,,,,,,,,,,,,,,
391.924,,,,,,,,JR,2024-01-21_16h18.11.892,Mental Fatigue Training Session,2020.2.4,MacIntel,60,,,,,,,,k,1,0.437,1,0,10,1,1,2,AX,A,X,target,k,,,,,,,,,,,,,,,,,,,,,,,,,,,,,,,,,,,,,,,,,,,,,,,,,,,,,,,,,,,,,,,,,,,
399.091,,,,,,,,JR,2024-01-21_16h18.11.892,Mental Fatigue Training Session,2020.2.4,MacIntel,60,,,,,,,,d,1,0.488,1,1,11,8,1,9,AY,A,Y,cueWrong,d,,,,,,,,,,,,,,,,,,,,,,,,,,,,,,,,,,,,,,,,,,,,,,,,,,,,,,,,,,,,,,,,,,,
406.292,,,,,,,,JR,2024-01-21_16h18.11.892,Mental Fatigue Training Session,2020.2.4,MacIntel,60,,,,,,,,k,1,0.406,1,2,12,6,1,7,AX,A,X,target,k,,,,,,,,,,,,,,,,,,,,,,,,,,,,,,,,,,,,,,,,,,,,,,,,,,,,,,,,,,,,,,,,,,,
413.425,,,,,,,,JR,2024-01-21_16h18.11.892,Mental Fatigue Training Session,2020.2.4,MacIntel,60,,,,,,,,k,1,0.452,1,3,13,4,1,5,AX,A,X,target,k,,,,,,,,,,,,,,,,,,,,,,,,,,,,,,,,,,,,,,,,,,,,,,,,,,,,,,,,,,,,,,,,,,,
420.592,,,,,,,,JR,2024-01-21_16h18.11.892,Mental Fatigue Training Session,2020.2.4,MacIntel,60,,,,,,,,d,1,0.894,1,4,14,7,1,8,BX,B,X,probeWrong,d,,,,,,,,,,,,,,,,,,,,,,,,,,,,,,,,,,,,,,,,,,,,,,,,,,,,,,,,,,,,,,,,,,,
428.226,,,,,,,,JR,2024-01-21_16h18.11.892,Mental Fatigue Training Session,2020.2.4,MacIntel,60,,,,,,,,k,1,0.494,1,5,15,0,1,1,AX,A,X,target,k,,,,,,,,,,,,,,,,,,,,,,,,,,,,,,,,,,,,,,,,,,,,,,,,,,,,,,,,,,,,,,,,,,,
435.46,,,,,,,,JR,2024-01-21_16h18.11.892,Mental Fatigue Training Session,2020.2.4,MacIntel,60,,,,,,,,d,1,0.654,1,6,16,9,1,10,BY,B,Y,bothWrong,d,,,,,,,,,,,,,,,,,,,,,,,,,,,,,,,,,,,,,,,,,,,,,,,,,,,,,,,,,,,,,,,,,,,
442.826,,,,,,,,JR,2024-01-21_16h18.11.892,Mental Fatigue Training Session,2020.2.4,MacIntel,60,,,,,,,,k,1,0.432,1,7,17,5,1,6,AX,A,X,target,k,,,,,,,,,,,,,,,,,,,,,,,,,,,,,,,,,,,,,,,,,,,,,,,,,,,,,,,,,,,,,,,,,,,
449.993,,,,,,,,JR,2024-01-21_16h18.11.892,Mental Fatigue Training Session,2020.2.4,MacIntel,60,,,,,,,,k,1,0.463,1,8,18,3,1,4,AX,A,X,target,k,,,,,,,,,,,,,,,,,,,,,,,,,,,,,,,,,,,,,,,,,,,,,,,,,,,,,,,,,,,,,,,,,,,
457.16,,,,,,,,JR,2024-01-21_16h18.11.892,Mental Fatigue Training Session,2020.2.4,MacIntel,60,,,,,,,,k,1,0.453,1,9,19,2,1,3,AX,A,X,target,k,,,,,,,,,,,,,,,,,,,,,,,,,,,,,,,,,,,,,,,,,,,,,,,,,,,,,,,,,,,,,,,,,,,
464.327,,,,,,,,JR,2024-01-21_16h18.11.892,Mental Fatigue Training Session,2020.2.4,MacIntel,60,,,,,,,,k,1,0.439,2,0,20,5,1,6,AX,A,X,target,k,,,,,,,,,,,,,,,,,,,,,,,,,,,,,,,,,,,,,,,,,,,,,,,,,,,,,,,,,,,,,,,,,,,
471.494,,,,,,,,JR,2024-01-21_16h18.11.892,Mental Fatigue Training Session,2020.2.4,MacIntel,60,,,,,,,,d,1,0.288,2,1,21,8,1,9,AY,A,Y,cueWrong,d,,,,,,,,,,,,,,,,,,,,,,,,,,,,,,,,,,,,,,,,,,,,,,,,,,,,,,,,,,,,,,,,,,,
478.494,,,,,,,,JR,2024-01-21_16h18.11.892,Mental Fatigue Training Session,2020.2.4,MacIntel,60,,,,,,,,k,1,0.433,2,2,22,4,1,5,AX,A,X,target,k,,,,,,,,,,,,,,,,,,,,,,,,,,,,,,,,,,,,,,,,,,,,,,,,,,,,,,,,,,,,,,,,,,,
485.662,,,,,,,,JR,2024-01-21_16h18.11.892,Mental Fatigue Training Session,2020.2.4,MacIntel,60,,,,,,,,k,1,0.418,2,3,23,6,1,7,AX,A,X,target,k,,,,,,,,,,,,,,,,,,,,,,,,,,,,,,,,,,,,,,,,,,,,,,,,,,,,,,,,,,,,,,,,,,,
492.795,,,,,,,,JR,2024-01-21_16h18.11.892,Mental Fatigue Training Session,2020.2.4,MacIntel,60,,,,,,,,d,1,0.384,2,4,24,9,1,10,BY,B,Y,bothWrong,d,,,,,,,,,,,,,,,,,,,,,,,,,,,,,,,,,,,,,,,,,,,,,,,,,,,,,,,,,,,,,,,,,,,
499.895,,,,,,,,JR,2024-01-21_16h18.11.892,Mental Fatigue Training Session,2020.2.4,MacIntel,60,,,,,,,,k,1,0.363,2,5,25,3,1,4,AX,A,X,target,k,,,,,,,,,,,,,,,,,,,,,,,,,,,,,,,,,,,,,,,,,,,,,,,,,,,,,,,,,,,,,,,,,,,
506.995,,,,,,,,JR,2024-01-21_16h18.11.892,Mental Fatigue Training Session,2020.2.4,MacIntel,60,,,,,,,,k,1,0.44,2,6,26,2,1,3,AX,A,X,target,k,,,,,,,,,,,,,,,,,,,,,,,,,,,,,,,,,,,,,,,,,,,,,,,,,,,,,,,,,,,,,,,,,,,
514.162,,,,,,,,JR,2024-01-21_16h18.11.892,Mental Fatigue Training Session,2020.2.4,MacIntel,60,,,,,,,,k,1,0.473,2,7,27,1,1,2,AX,A,X,target,k,,,,,,,,,,,,,,,,,,,,,,,,,,,,,,,,,,,,,,,,,,,,,,,,,,,,,,,,,,,,,,,,,,,
521.363,,,,,,,,JR,2024-01-21_16h18.11.892,Mental Fatigue Training Session,2020.2.4,MacIntel,60,,,,,,,,k,1,0.456,2,8,28,0,1,1,AX,A,X,target,k,,,,,,,,,,,,,,,,,,,,,,,,,,,,,,,,,,,,,,,,,,,,,,,,,,,,,,,,,,,,,,,,,,,
528.53,,,,,,,,JR,2024-01-21_16h18.11.892,Mental Fatigue Training Session,2020.2.4,MacIntel,60,,,,,,,,d,1,0.468,2,9,29,7,1,8,BX,B,X,probeWrong,d,,,,,,,,,,,,,,,,,,,,,,,,,,,,,,,,,,,,,,,,,,,,,,,,,,,,,,,,,,,,,,,,,,,
535.73,,,,,,,,JR,2024-01-21_16h18.11.892,Mental Fatigue Training Session,2020.2.4,MacIntel,60,,,,,,,,k,1,0.382,3,0,30,0,1,1,AX,A,X,target,k,,,,,,,,,,,,,,,,,,,,,,,,,,,,,,,,,,,,,,,,,,,,,,,,,,,,,,,,,,,,,,,,,,,
542.83,,,,,,,,JR,2024-01-21_16h18.11.892,Mental Fatigue Training Session,2020.2.4,MacIntel,60,,,,,,,,k,1,0.422,3,1,31,2,1,3,AX,A,X,target,k,,,,,,,,,,,,,,,,,,,,,,,,,,,,,,,,,,,,,,,,,,,,,,,,,,,,,,,,,,,,,,,,,,,
549.964,,,,,,,,JR,2024-01-21_16h18.11.892,Mental Fatigue Training Session,2020.2.4,MacIntel,60,,,,,,,,k,1,0.573,3,2,32,3,1,4,AX,A,X,target,k,,,,,,,,,,,,,,,,,,,,,,,,,,,,,,,,,,,,,,,,,,,,,,,,,,,,,,,,,,,,,,,,,,,
557.264,,,,,,,,JR,2024-01-21_16h18.11.892,Mental Fatigue Training Session,2020.2.4,MacIntel,60,,,,,,,,k,1,0.434,3,3,33,6,1,7,AX,A,X,target,k,,,,,,,,,,,,,,,,,,,,,,,,,,,,,,,,,,,,,,,,,,,,,,,,,,,,,,,,,,,,,,,,,,,
564.431,,,,,,,,JR,2024-01-21_16h18.11.892,Mental Fatigue Training Session,2020.2.4,MacIntel,60,,,,,,,,k,1,0.435,3,4,34,1,1,2,AX,A,X,target,k,,,,,,,,,,,,,,,,,,,,,,,,,,,,,,,,,,,,,,,,,,,,,,,,,,,,,,,,,,,,,,,,,,,
571.598,,,,,,,,JR,2024-01-21_16h18.11.892,Mental Fatigue Training Session,2020.2.4,MacIntel,60,,,,,,,,k,1,0.453,3,5,35,5,1,6,AX,A,X,target,k,,,,,,,,,,,,,,,,,,,,,,,,,,,,,,,,,,,,,,,,,,,,,,,,,,,,,,,,,,,,,,,,,,,
578.766,,,,,,,,JR,2024-01-21_16h18.11.892,Mental Fatigue Training Session,2020.2.4,MacIntel,60,,,,,,,,d,1,0.451,3,6,36,8,1,9,AY,A,Y,cueWrong,d,,,,,,,,,,,,,,,,,,,,,,,,,,,,,,,,,,,,,,,,,,,,,,,,,,,,,,,,,,,,,,,,,,,
585.932,,,,,,,,JR,2024-01-21_16h18.11.892,Mental Fatigue Training Session,2020.2.4,MacIntel,60,,,,,,,,d,1,0.427,3,7,37,9,1,10,BY,B,Y,bothWrong,d,,,,,,,,,,,,,,,,,,,,,,,,,,,,,,,,,,,,,,,,,,,,,,,,,,,,,,,,,,,,,,,,,,,
593.099,,,,,,,,JR,2024-01-21_16h18.11.892,Mental Fatigue Training Session,2020.2.4,MacIntel,60,,,,,,,,k,1,0.394,3,8,38,4,1,5,AX,A,X,target,k,,,,,,,,,,,,,,,,,,,,,,,,,,,,,,,,,,,,,,,,,,,,,,,,,,,,,,,,,,,,,,,,,,,
600.232,,,,,,,,JR,2024-01-21_16h18.11.892,Mental Fatigue Training Session,2020.2.4,MacIntel,60,,,,,,,,d,1,0.582,3,9,39,7,1,8,BX,B,X,probeWrong,d,,,,,,,,,,,,,,,,,,,,,,,,,,,,,,,,,,,,,,,,,,,,,,,,,,,,,,,,,,,,,,,,,,,
607.532,,,,,,,,JR,2024-01-21_16h18.11.892,Mental Fatigue Training Session,2020.2.4,MacIntel,60,,,,,,,,k,1,0.451,4,0,40,3,1,4,AX,A,X,target,k,,,,,,,,,,,,,,,,,,,,,,,,,,,,,,,,,,,,,,,,,,,,,,,,,,,,,,,,,,,,,,,,,,,
614.7,,,,,,,,JR,2024-01-21_16h18.11.892,Mental Fatigue Training Session,2020.2.4,MacIntel,60,,,,,,,,k,1,0.463,4,1,41,6,1,7,AX,A,X,target,k,,,,,,,,,,,,,,,,,,,,,,,,,,,,,,,,,,,,,,,,,,,,,,,,,,,,,,,,,,,,,,,,,,,
621.868,,,,,,,,JR,2024-01-21_16h18.11.892,Mental Fatigue Training Session,2020.2.4,MacIntel,60,,,,,,,,k,1,0.391,4,2,42,2,1,3,AX,A,X,target,k,,,,,,,,,,,,,,,,,,,,,,,,,,,,,,,,,,,,,,,,,,,,,,,,,,,,,,,,,,,,,,,,,,,
941.214,,,,,,,,JR,2024-01-21_16h18.11.892,Mental Fatigue Training Session,2020.2.4,MacIntel,60,,,,,,,,,,,,,,,,,,,,,,236.776,right,236.744,right,76.63,0,0,0,0,1,,,,,,,,,,,,,,,,,,,,,,,,,,,,,,,,,,,,,,,,,,,,,,,,,,,,,,,,,
987.281,,,,,,,,JR,2024-01-21_16h18.11.892,Mental Fatigue Training Session,2020.2.4,MacIntel,60,,,,,,,,,,,,,,,,,,,,,,,,,right,46.045,1,0,1,0,1,,,,,,,,,,,,,,,,,,,,,,,,,,,,,,,,,,,,,,,,,,,,,,,,,,,,,,,,,
999.483,,,,,,,,JR,2024-01-21_16h18.11.892,Mental Fatigue Training Session,2020.2.4,MacIntel,60,,,,,,,,,,,,,,,,,,,,,,,,,right,12.181,2,0,2,0,1,,,,,,,,,,,,,,,,,,,,,,,,,,,,,,,,,,,,,,,,,,,,,,,,,,,,,,,,,
1005.582,,,,,,,,JR,2024-01-21_16h18.11.892,Mental Fatigue Training Session,2020.2.4,MacIntel,60,,,,,,,,,,,,,,,,,,,,,,,,,k,6.089,3,0,3,0,1,,,,,,,,,,,,,,,,,,,,,,,,,,,,,,,,,,,,,,,,,,,,,,,,,,,,,,,,,
1006.782,,,,,,,,JR,2024-01-21_16h18.11.892,Mental Fatigue Training Session,2020.2.4,MacIntel,60,,,,,,,,,,,,,,,,,,,,,,,,,,,,,,,,d,1.955,0,0,0,0,1,,,,,,,,,,,,,,,,,,,,,,,,,,,,,,,,,,,,,,,,,,,,,,,,,,
1009.949,,,,,,,,JR,2024-01-21_16h18.11.892,Mental Fatigue Training Session,2020.2.4,MacIntel,60,,,,,,,,,,,,,,,,,,,,,,,,,,,,,,,,d,0.977,1,0,1,0,1,,,,,,,,,,,,,,,,,,,,,,,,,,,,,,,,,,,,,,,,,,,,,,,,,,
1012.149,,,,,,,,JR,2024-01-21_16h18.11.892,Mental Fatigue Training Session,2020.2.4,MacIntel,60,,,,,,,,,,,,,,,,,,,,,,,,,,,,,,,,d,1.07,2,0,2,0,1,,,,,,,,,,,,,,,,,,,,,,,,,,,,,,,,,,,,,,,,,,,,,,,,,,
1014.483,,,,,,,,JR,2024-01-21_16h18.11.892,Mental Fatigue Training Session,2020.2.4,MacIntel,60,,,,,,,,,,,,,,,,,7,,,nonTarget,d,,,,,,,,,,,,,,,,,,d,1,1.267,0,0,0,6,1,,,,,,,,,,,,,,,,,,,,,,,,,,,,,,,,,,,,,,,,,,
1017.983,,,,,,,,JR,2024-01-21_16h18.11.892,Mental Fatigue Training Session,2020.2.4,MacIntel,60,,,,,,,,,,,,,,,,,9,,,nonTarget,d,,,,,,,,,,,,,,,,,,,0,,0,1,1,8,1,,,,,,,,,,,,,,,,,,,,,,,,,,,,,,,,,,,,,,,,,,
1022.183,,,,,,,,JR,2024-01-21_16h18.11.892,Mental Fatigue Training Session,2020.2.4,MacIntel,60,,,,,,,,,,,,,,,,,4,,,nonTarget,d,,,,,,,,,,,,,,,,,,d,1,0.547,0,2,2,3,1,,,,,,,,,,,,,,,,,,,,,,,,,,,,,,,,,,,,,,,,,,
1024.949,,,,,,,,JR,2024-01-21_16h18.11.892,Mental Fatigue Training Session,2020.2.4,MacIntel,60,,,,,,,,,,,,,,,,,10,,,nonTarget,d,,,,,,,,,,,,,,,,,,d,1,0.45,0,3,3,9,1,,,,,,,,,,,,,,,,,,,,,,,,,,,,,,,,,,,,,,,,,,
1027.616,,,,,,,,JR,2024-01-21_16h18.11.892,Mental Fatigue Training Session,2020.2.4,MacIntel,60,,,,,,,,,,,,,,,,,2,,,target,k,,,,,,,,,,,,,,,,,,k,1,0.398,0,4,4,1,1,,,,,,,,,,,,,,,,,,,,,,,,,,,,,,,,,,,,,,,,,,
1030.25,,,,,,,,JR,2024-01-21_16h18.11.892,Mental Fatigue Training Session,2020.2.4,MacIntel,60,,,,,,,,,,,,,,,,,5,,,nonTarget,d,,,,,,,,,,,,,,,,,,d,1,0.614,0,5,5,4,1,,,,,,,,,,,,,,,,,,,,,,,,,,,,,,,,,,,,,,,,,,
1033.083,,,,,,,,JR,2024-01-21_16h18.11.892,Mental Fatigue Training Session,2020.2.4,MacIntel,60,,,,,,,,,,,,,,,,,1,,,target,k,,,,,,,,,,,,,,,,,,k,1,0.815,0,6,6,0,1,,,,,,,,,,,,,,,,,,,,,,,,,,,,,,,,,,,,,,,,,,
1036.116,,,,,,,,JR,2024-01-21_16h18.11.892,Mental Fatigue Training Session,2020.2.4,MacIntel,60,,,,,,,,,,,,,,,,,3,,,target,k,,,,,,,,,,,,,,,,,,d,0,1.064,0,7,7,2,1,,,,,,,,,,,,,,,,,,,,,,,,,,,,,,,,,,,,,,,,,,
1039.417,,,,,,,,JR,2024-01-21_16h18.11.892,Mental Fatigue Training Session,2020.2.4,MacIntel,60,,,,,,,,,,,,,,,,,8,,,nonTarget,d,,,,,,,,,,,,,,,,,,d,1,0.917,0,8,8,7,1,,,,,,,,,,,,,,,,,,,,,,,,,,,,,,,,,,,,,,,,,,
1042.55,,,,,,,,JR,2024-01-21_16h18.11.892,Mental Fatigue Training Session,2020.2.4,MacIntel,60,,,,,,,,,,,,,,,,,6,,,nonTarget,d,,,,,,,,,,,,,,,,,,d,1,1.331,0,9,9,5,1,,,,,,,,,,,,,,,,,,,,,,,,,,,,,,,,,,,,,,,,,,
1046.117,,,,,,,,JR,2024-01-21_16h18.11.892,Mental Fatigue Training Session,2020.2.4,MacIntel,60,,,,,,,,,,,,,,,,,2,,,target,k,,,,,,,,,,,,,,,,,,k,1,0.715,1,0,10,1,1,,,,,,,,,,,,,,,,,,,,,,,,,,,,,,,,,,,,,,,,,,
1049.05,,,,,,,,JR,2024-01-21_16h18.11.892,Mental Fatigue Training Session,2020.2.4,MacIntel,60,,,,,,,,,,,,,,,,,10,,,nonTarget,d,,,,,,,,,,,,,,,,,,d,1,0.806,1,1,11,9,1,,,,,,,,,,,,,,,,,,,,,,,,,,,,,,,,,,,,,,,,,,
1052.084,,,,,,,,JR,2024-01-21_16h18.11.892,Mental Fatigue Training Session,2020.2.4,MacIntel,60,,,,,,,,,,,,,,,,,8,,,nonTarget,d,,,,,,,,,,,,,,,,,,d,1,0.649,1,2,12,7,1,,,,,,,,,,,,,,,,,,,,,,,,,,,,,,,,,,,,,,,,,,
1054.95,,,,,,,,JR,2024-01-21_16h18.11.892,Mental Fatigue Training Session,2020.2.4,MacIntel,60,,,,,,,,,,,,,,,,,1,,,target,k,,,,,,,,,,,,,,,,,,k,1,0.863,1,3,13,0,1,,,,,,,,,,,,,,,,,,,,,,,,,,,,,,,,,,,,,,,,,,
1058.051,,,,,,,,JR,2024-01-21_16h18.11.892,Mental Fatigue Training Session,2020.2.4,MacIntel,60,,,,,,,,,,,,,,,,,4,,,nonTarget,d,,,,,,,,,,,,,,,,,,d,1,0.816,1,4,14,3,1,,,,,,,,,,,,,,,,,,,,,,,,,,,,,,,,,,,,,,,,,,
1061.084,,,,,,,,JR,2024-01-21_16h18.11.892,Mental Fatigue Training Session,2020.2.4,MacIntel,60,,,,,,,,,,,,,,,,,6,,,nonTarget,d,,,,,,,,,,,,,,,,,,d,1,0.745,1,5,15,5,1,,,,,,,,,,,,,,,,,,,,,,,,,,,,,,,,,,,,,,,,,,
1064.051,,,,,,,,JR,2024-01-21_16h18.11.892,Mental Fatigue Training Session,2020.2.4,MacIntel,60,,,,,,,,,,,,,,,,,3,,,target,k,,,,,,,,,,,,,,,,,,k,1,0.616,1,6,16,2,1,,,,,,,,,,,,,,,,,,,,,,,,,,,,,,,,,,,,,,,,,,
1066.884,,,,,,,,JR,2024-01-21_16h18.11.892,Mental Fatigue Training Session,2020.2.4,MacIntel,60,,,,,,,,,,,,,,,,,7,,,nonTarget,d,,,,,,,,,,,,,,,,,,d,1,0.665,1,7,17,6,1,,,,,,,,,,,,,,,,,,,,,,,,,,,,,,,,,,,,,,,,,,
1069.784,,,,,,,,JR,2024-01-21_16h18.11.892,Mental Fatigue Training Session,2020.2.4,MacIntel,60,,,,,,,,,,,,,,,,,5,,,nonTarget,d,,,,,,,,,,,,,,,,,,d,1,0.751,1,8,18,4,1,,,,,,,,,,,,,,,,,,,,,,,,,,,,,,,,,,,,,,,,,,
1072.751,,,,,,,,JR,2024-01-21_16h18.11.892,Mental Fatigue Training Session,2020.2.4,MacIntel,60,,,,,,,,,,,,,,,,,9,,,nonTarget,d,,,,,,,,,,,,,,,,,,k,0,0.617,1,9,19,8,1,,,,,,,,,,,,,,,,,,,,,,,,,,,,,,,,,,,,,,,,,,
1075.585,,,,,,,,JR,2024-01-21_16h18.11.892,Mental Fatigue Training Session,2020.2.4,MacIntel,60,,,,,,,,,,,,,,,,,5,,,nonTarget,d,,,,,,,,,,,,,,,,,,d,1,0.598,2,0,20,4,1,,,,,,,,,,,,,,,,,,,,,,,,,,,,,,,,,,,,,,,,,,
1078.418,,,,,,,,JR,2024-01-21_16h18.11.892,Mental Fatigue Training Session,2020.2.4,MacIntel,60,,,,,,,,,,,,,,,,,6,,,nonTarget,d,,,,,,,,,,,,,,,,,,d,1,0.627,2,1,21,5,1,,,,,,,,,,,,,,,,,,,,,,,,,,,,,,,,,,,,,,,,,,
1081.285,,,,,,,,JR,2024-01-21_16h18.11.892,Mental Fatigue Training Session,2020.2.4,MacIntel,60,,,,,,,,,,,,,,,,,3,,,target,k,,,,,,,,,,,,,,,,,,k,1,0.801,2,2,22,2,1,,,,,,,,,,,,,,,,,,,,,,,,,,,,,,,,,,,,,,,,,,
1084.319,,,,,,,,JR,2024-01-21_16h18.11.892,Mental Fatigue Training Session,2020.2.4,MacIntel,60,,,,,,,,,,,,,,,,,2,,,target,k,,,,,,,,,,,,,,,,,,d,0,1.128,2,3,23,1,1,,,,,,,,,,,,,,,,,,,,,,,,,,,,,,,,,,,,,,,,,,
1087.685,,,,,,,,JR,2024-01-21_16h18.11.892,Mental Fatigue Training Session,2020.2.4,MacIntel,60,,,,,,,,,,,,,,,,,9,,,nonTarget,d,,,,,,,,,,,,,,,,,,d,1,0.838,2,4,24,8,1,,,,,,,,,,,,,,,,,,,,,,,,,,,,,,,,,,,,,,,,,,
1090.752,,,,,,,,JR,2024-01-21_16h18.11.892,Mental Fatigue Training Session,2020.2.4,MacIntel,60,,,,,,,,,,,,,,,,,7,,,nonTarget,d,,,,,,,,,,,,,,,,,,d,1,1.016,2,5,25,6,1,,,,,,,,,,,,,,,,,,,,,,,,,,,,,,,,,,,,,,,,,,
1093.985,,,,,,,,JR,2024-01-21_16h18.11.892,Mental Fatigue Training Session,2020.2.4,MacIntel,60,,,,,,,,,,,,,,,,,8,,,nonTarget,d,,,,,,,,,,,,,,,,,,d,1,0.767,2,6,26,7,1,,,,,,,,,,,,,,,,,,,,,,,,,,,,,,,,,,,,,,,,,,
1096.986,,,,,,,,JR,2024-01-21_16h18.11.892,Mental Fatigue Training Session,2020.2.4,MacIntel,60,,,,,,,,,,,,,,,,,1,,,target,k,,,,,,,,,,,,,,,,,,k,1,0.711,2,7,27,0,1,,,,,,,,,,,,,,,,,,,,,,,,,,,,,,,,,,,,,,,,,,
1099.919,,,,,,,,JR,2024-01-21_16h18.11.892,Mental Fatigue Training Session,2020.2.4,MacIntel,60,,,,,,,,,,,,,,,,,10,,,nonTarget,d,,,,,,,,,,,,,,,,,,k,0,0.781,2,8,28,9,1,,,,,,,,,,,,,,,,,,,,,,,,,,,,,,,,,,,,,,,,,,
1102.918,,,,,,,,JR,2024-01-21_16h18.11.892,Mental Fatigue Training Session,2020.2.4,MacIntel,60,,,,,,,,,,,,,,,,,4,,,nonTarget,d,,,,,,,,,,,,,,,,,,d,1,1.233,2,9,29,3,1,,,,,,,,,,,,,,,,,,,,,,,,,,,,,,,,,,,,,,,,,,
1106.385,,,,,,,,JR,2024-01-21_16h18.11.892,Mental Fatigue Training Session,2020.2.4,MacIntel,60,,,,,,,,,,,,,,,,,5,,,nonTarget,d,,,,,,,,,,,,,,,,,,d,1,0.783,3,0,30,4,1,,,,,,,,,,,,,,,,,,,,,,,,,,,,,,,,,,,,,,,,,,
1109.386,,,,,,,,JR,2024-01-21_16h18.11.892,Mental Fatigue Training Session,2020.2.4,MacIntel,60,,,,,,,,,,,,,,,,,8,,,nonTarget,d,,,,,,,,,,,,,,,,,,d,1,0.671,3,1,31,7,1,,,,,,,,,,,,,,,,,,,,,,,,,,,,,,,,,,,,,,,,,,
1112.286,,,,,,,,JR,2024-01-21_16h18.11.892,Mental Fatigue Training Session,2020.2.4,MacIntel,60,,,,,,,,,,,,,,,,,3,,,target,k,,,,,,,,,,,,,,,,,,k,1,0.949,3,2,32,2,1,,,,,,,,,,,,,,,,,,,,,,,,,,,,,,,,,,,,,,,,,,
1115.453,,,,,,,,JR,2024-01-21_16h18.11.892,Mental Fatigue Training Session,2020.2.4,MacIntel,60,,,,,,,,,,,,,,,,,2,,,target,k,,,,,,,,,,,,,,,,,,k,1,0.969,3,3,33,1,1,,,,,,,,,,,,,,,,,,,,,,,,,,,,,,,,,,,,,,,,,,
1118.653,,,,,,,,JR,2024-01-21_16h18.11.892,Mental Fatigue Training Session,2020.2.4,MacIntel,60,,,,,,,,,,,,,,,,,9,,,nonTarget,d,,,,,,,,,,,,,,,,,,d,1,0.931,3,4,34,8,1,,,,,,,,,,,,,,,,,,,,,,,,,,,,,,,,,,,,,,,,,,
1121.82,,,,,,,,JR,2024-01-21_16h18.11.892,Mental Fatigue Training Session,2020.2.4,MacIntel,60,,,,,,,,,,,,,,,,,7,,,nonTarget,d,,,,,,,,,,,,,,,,,,d,1,0.916,3,5,35,6,1,,,,,,,,,,,,,,,,,,,,,,,,,,,,,,,,,,,,,,,,,,
1124.953,,,,,,,,JR,2024-01-21_16h18.11.892,Mental Fatigue Training Session,2020.2.4,MacIntel,60,,,,,,,,,,,,,,,,,1,,,target,k,,,,,,,,,,,,,,,,,,d,0,1.283,3,6,36,0,1,,,,,,,,,,,,,,,,,,,,,,,,,,,,,,,,,,,,,,,,,,
1128.453,,,,,,,,JR,2024-01-21_16h18.11.892,Mental Fatigue Training Session,2020.2.4,MacIntel,60,,,,,,,,,,,,,,,,,4,,,nonTarget,d,,,,,,,,,,,,,,,,,,d,1,1.494,3,7,37,3,1,,,,,,,,,,,,,,,,,,,,,,,,,,,,,,,,,,,,,,,,,,
1132.187,,,,,,,,JR,2024-01-21_16h18.11.892,Mental Fatigue Training Session,2020.2.4,MacIntel,60,,,,,,,,,,,,,,,,,10,,,nonTarget,d,,,,,,,,,,,,,,,,,,d,1,1.049,3,8,38,9,1,,,,,,,,,,,,,,,,,,,,,,,,,,,,,,,,,,,,,,,,,,
1135.454,,,,,,,,JR,2024-01-21_16h18.11.892,Mental Fatigue Training Session,2020.2.4,MacIntel,60,,,,,,,,,,,,,,,,,6,,,nonTarget,d,,,,,,,,,,,,,,,,,,d,1,0.687,3,9,39,5,1,,,,,,,,,,,,,,,,,,,,,,,,,,,,,,,,,,,,,,,,,,
1138.354,,,,,,,,JR,2024-01-21_16h18.11.892,Mental Fatigue Training Session,2020.2.4,MacIntel,60,,,,,,,,,,,,,,,,,6,,,nonTarget,d,,,,,,,,,,,,,,,,,,d,1,1.048,4,0,40,5,1,,,,,,,,,,,,,,,,,,,,,,,,,,,,,,,,,,,,,,,,,,
1141.621,,,,,,,,JR,2024-01-21_16h18.11.892,Mental Fatigue Training Session,2020.2.4,MacIntel,60,,,,,,,,,,,,,,,,,1,,,target,k,,,,,,,,,,,,,,,,,,k,1,0.964,4,1,41,0,1,,,,,,,,,,,,,,,,,,,,,,,,,,,,,,,,,,,,,,,,,,
1144.821,,,,,,,,JR,2024-01-21_16h18.11.892,Mental Fatigue Training Session,2020.2.4,MacIntel,60,,,,,,,,,,,,,,,,,9,,,nonTarget,d,,,,,,,,,,,,,,,,,,d,1,0.605,4,2,42,8,1,,,,,,,,,,,,,,,,,,,,,,,,,,,,,,,,,,,,,,,,,,
1147.654,,,,,,,,JR,2024-01-21_16h18.11.892,Mental Fatigue Training Session,2020.2.4,MacIntel,60,,,,,,,,,,,,,,,,,10,,,nonTarget,d,,,,,,,,,,,,,,,,,,d,1,1.536,4,3,43,9,1,,,,,,,,,,,,,,,,,,,,,,,,,,,,,,,,,,,,,,,,,,
1151.421,,,,,,,,JR,2024-01-21_16h18.11.892,Mental Fatigue Training Session,2020.2.4,MacIntel,60,,,,,,,,,,,,,,,,,8,,,nonTarget,d,,,,,,,,,,,,,,,,,,d,1,1.46,4,4,44,7,1,,,,,,,,,,,,,,,,,,,,,,,,,,,,,,,,,,,,,,,,,,
1155.121,,,,,,,,JR,2024-01-21_16h18.11.892,Mental Fatigue Training Session,2020.2.4,MacIntel,60,,,,,,,,,,,,,,,,,7,,,nonTarget,d,,,,,,,,,,,,,,,,,,d,1,0.871,4,5,45,6,1,,,,,,,,,,,,,,,,,,,,,,,,,,,,,,,,,,,,,,,,,,
1158.221,,,,,,,,JR,2024-01-21_16h18.11.892,Mental Fatigue Training Session,2020.2.4,MacIntel,60,,,,,,,,,,,,,,,,,3,,,target,k,,,,,,,,,,,,,,,,,,k,1,0.965,4,6,46,2,1,,,,,,,,,,,,,,,,,,,,,,,,,,,,,,,,,,,,,,,,,,
1161.422,,,,,,,,JR,2024-01-21_16h18.11.892,Mental Fatigue Training Session,2020.2.4,MacIntel,60,,,,,,,,,,,,,,,,,5,,,nonTarget,d,,,,,,,,,,,,,,,,,,k,0,0.995,4,7,47,4,1,,,,,,,,,,,,,,,,,,,,,,,,,,,,,,,,,,,,,,,,,,
1164.656,,,,,,,,JR,2024-01-21_16h18.11.892,Mental Fatigue Training Session,2020.2.4,MacIntel,60,,,,,,,,,,,,,,,,,4,,,nonTarget,d,,,,,,,,,,,,,,,,,,d,1,0.815,4,8,48,3,1,,,,,,,,,,,,,,,,,,,,,,,,,,,,,,,,,,,,,,,,,,
1182.056,,,,,,,,JR,2024-01-21_16h18.11.892,Mental Fatigue Training Session,2020.2.4,MacIntel,60,,,,,,,,,,,,,,,,,,,,,,,,,,,,,,,,,,,,,,,,,,,,,,,6.067,right,6.046,right,9.465,0,0,0,0,1,,,,,,,,,,,,,,,,,,,,,,,,,,,,,,,,
1189.056,,,,,,,,JR,2024-01-21_16h18.11.892,Mental Fatigue Training Session,2020.2.4,MacIntel,60,,,,,,,,,,,,,,,,,,,,,,,,,,,,,,,,,,,,,,,,,,,,,,,,,,right,6.959,1,0,1,0,1,,,,,,,,,,,,,,,,,,,,,,,,,,,,,,,,
1196.291,,,,,,,,JR,2024-01-21_16h18.11.892,Mental Fatigue Training Session,2020.2.4,MacIntel,60,,,,,,,,,,,,,,,,,,,,,,,,,,,,,,,,,,,,,,,,,,,,,,,,,,right,7.217,2,0,2,0,1,,,,,,,,,,,,,,,,,,,,,,,,,,,,,,,,
1197.689,,,,,,,,JR,2024-01-21_16h18.11.892,Mental Fatigue Training Session,2020.2.4,MacIntel,60,,,,,,,,,,,,,,,,,,,,,,,,,,,,,,,,,,,,,,,,,,,,,,,,,,k,1.392,3,0,3,0,1,,,,,,,,,,,,,,,,,,,,,,,,,,,,,,,,
1198.923,,,,,,,,JR,2024-01-21_16h18.11.892,Mental Fatigue Training Session,2020.2.4,MacIntel,60,,,,,,,,,,,,,,,,,,,,,k,,,,,,,,,,,,,,,,,,,,,,,,,,,,,,,,,,,,k,1,1.351,0,0,0,8,1,target,T,,,,,,,,,,,,,,,,,,,,,,
1202.523,,,,,,,,JR,2024-01-21_16h18.11.892,Mental Fatigue Training Session,2020.2.4,MacIntel,60,,,,,,,,,,,,,,,,,,,,,d,,,,,,,,,,,,,,,,,,,,,,,,,,,,,,,,,,,,d,1,1.092,0,1,1,5,1,nonTarget,L,,,,,,,,,,,,,,,,,,,,,,
1205.856,,,,,,,,JR,2024-01-21_16h18.11.892,Mental Fatigue Training Session,2020.2.4,MacIntel,60,,,,,,,,,,,,,,,,,,,,,d,,,,,,,,,,,,,,,,,,,,,,,,,,,,,,,,,,,,d,1,0.987,0,2,2,1,1,nonTarget,L,,,,,,,,,,,,,,,,,,,,,,
1209.09,,,,,,,,JR,2024-01-21_16h18.11.892,Mental Fatigue Training Session,2020.2.4,MacIntel,60,,,,,,,,,,,,,,,,,,,,,d,,,,,,,,,,,,,,,,,,,,,,,,,,,,,,,,,,,,d,1,1.219,0,3,3,7,1,nonTarget,L,,,,,,,,,,,,,,,,,,,,,,
1212.557,,,,,,,,JR,2024-01-21_16h18.11.892,Mental Fatigue Training Session,2020.2.4,MacIntel,60,,,,,,,,,,,,,,,,,,,,,k,,,,,,,,,,,,,,,,,,,,,,,,,,,,,,,,,,,,d,0,1.103,0,4,4,4,1,target,T,,,,,,,,,,,,,,,,,,,,,,
1215.89,,,,,,,,JR,2024-01-21_16h18.11.892,Mental Fatigue Training Session,2020.2.4,MacIntel,60,,,,,,,,,,,,,,,,,,,,,d,,,,,,,,,,,,,,,,,,,,,,,,,,,,,,,,,,,,d,1,1.169,0,5,5,3,1,nonTarget,L,,,,,,,,,,,,,,,,,,,,,,
1219.289,,,,,,,,JR,2024-01-21_16h18.11.892,Mental Fatigue Training Session,2020.2.4,MacIntel,60,,,,,,,,,,,,,,,,,,,,,d,,,,,,,,,,,,,,,,,,,,,,,,,,,,,,,,,,,,d,1,1.138,0,6,6,9,1,nonTarget,L,,,,,,,,,,,,,,,,,,,,,,
1222.657,,,,,,,,JR,2024-01-21_16h18.11.892,Mental Fatigue Training Session,2020.2.4,MacIntel,60,,,,,,,,,,,,,,,,,,,,,k,,,,,,,,,,,,,,,,,,,,,,,,,,,,,,,,,,,,k,1,1.255,0,7,7,0,1,target,T,,,,,,,,,,,,,,,,,,,,,,
1226.157,,,,,,,,JR,2024-01-21_16h18.11.892,Mental Fatigue Training Session,2020.2.4,MacIntel,60,,,,,,,,,,,,,,,,,,,,,k,,,,,,,,,,,,,,,,,,,,,,,,,,,,,,,,,,,,k,1,0.885,0,8,8,6,1,target,T,,,,,,,,,,,,,,,,,,,,,,
1229.257,,,,,,,,JR,2024-01-21_16h18.11.892,Mental Fatigue Training Session,2020.2.4,MacIntel,60,,,,,,,,,,,,,,,,,,,,,k,,,,,,,,,,,,,,,,,,,,,,,,,,,,,,,,,,,,k,1,0.956,0,9,9,2,1,target,T,,,,,,,,,,,,,,,,,,,,,,
1232.458,,,,,,,,JR,2024-01-21_16h18.11.892,Mental Fatigue Training Session,2020.2.4,MacIntel,60,,,,,,,,,,,,,,,,,,,,,d,,,,,,,,,,,,,,,,,,,,,,,,,,,,,,,,,,,,d,1,0.886,1,0,10,9,1,nonTarget,L,,,,,,,,,,,,,,,,,,,,,,
1235.591,,,,,,,,JR,2024-01-21_16h18.11.892,Mental Fatigue Training Session,2020.2.4,MacIntel,60,,,,,,,,,,,,,,,,,,,,,d,,,,,,,,,,,,,,,,,,,,,,,,,,,,,,,,,,,,d,1,0.968,1,1,11,1,1,nonTarget,L,,,,,,,,,,,,,,,,,,,,,,
1238.791,,,,,,,,JR,2024-01-21_16h18.11.892,Mental Fatigue Training Session,2020.2.4,MacIntel,60,,,,,,,,,,,,,,,,,,,,,d,,,,,,,,,,,,,,,,,,,,,,,,,,,,,,,,,,,,d,1,0.843,1,2,12,7,1,nonTarget,L,,,,,,,,,,,,,,,,,,,,,,
1241.858,,,,,,,,JR,2024-01-21_16h18.11.892,Mental Fatigue Training Session,2020.2.4,MacIntel,60,,,,,,,,,,,,,,,,,,,,,k,,,,,,,,,,,,,,,,,,,,,,,,,,,,,,,,,,,,d,0,1.202,1,3,13,4,1,target,T,,,,,,,,,,,,,,,,,,,,,,
1245.291,,,,,,,,JR,2024-01-21_16h18.11.892,Mental Fatigue Training Session,2020.2.4,MacIntel,60,,,,,,,,,,,,,,,,,,,,,d,,,,,,,,,,,,,,,,,,,,,,,,,,,,,,,,,,,,d,1,1.151,1,4,14,5,1,nonTarget,L,,,,,,,,,,,,,,,,,,,,,,
1248.692,,,,,,,,JR,2024-01-21_16h18.11.892,Mental Fatigue Training Session,2020.2.4,MacIntel,60,,,,,,,,,,,,,,,,,,,,,k,,,,,,,,,,,,,,,,,,,,,,,,,,,,,,,,,,,,k,1,0.589,1,5,15,8,1,target,T,,,,,,,,,,,,,,,,,,,,,,
1251.526,,,,,,,,JR,2024-01-21_16h18.11.892,Mental Fatigue Training Session,2020.2.4,MacIntel,60,,,,,,,,,,,,,,,,,,,,,k,,,,,,,,,,,,,,,,,,,,,,,,,,,,,,,,,,,,k,1,0.853,1,6,16,0,1,target,T,,,,,,,,,,,,,,,,,,,,,,
1254.625,,,,,,,,JR,2024-01-21_16h18.11.892,Mental Fatigue Training Session,2020.2.4,MacIntel,60,,,,,,,,,,,,,,,,,,,,,d,,,,,,,,,,,,,,,,,,,,,,,,,,,,,,,,,,,,d,1,1.067,1,7,17,3,1,nonTarget,L,,,,,,,,,,,,,,,,,,,,,,
1257.924,,,,,,,,JR,2024-01-21_16h18.11.892,Mental Fatigue Training Session,2020.2.4,MacIntel,60,,,,,,,,,,,,,,,,,,,,,k,,,,,,,,,,,,,,,,,,,,,,,,,,,,,,,,,,,,k,1,0.847,1,8,18,2,1,target,T,,,,,,,,,,,,,,,,,,,,,,
1260.992,,,,,,,,JR,2024-01-21_16h18.11.892,Mental Fatigue Training Session,2020.2.4,MacIntel,60,,,,,,,,,,,,,,,,,,,,,k,,,,,,,,,,,,,,,,,,,,,,,,,,,,,,,,,,,,k,1,1.277,1,9,19,6,1,target,T,,,,,,,,,,,,,,,,,,,,,,
1264.492,,,,,,,,JR,2024-01-21_16h18.11.892,Mental Fatigue Training Session,2020.2.4,MacIntel,60,,,,,,,,,,,,,,,,,,,,,d,,,,,,,,,,,,,,,,,,,,,,,,,,,,,,,,,,,,d,1,1.11,2,0,20,7,1,nonTarget,L,,,,,,,,,,,,,,,,,,,,,,
1267.826,,,,,,,,JR,2024-01-21_16h18.11.892,Mental Fatigue Training Session,2020.2.4,MacIntel,60,,,,,,,,,,,,,,,,,,,,,d,,,,,,,,,,,,,,,,,,,,,,,,,,,,,,,,,,,,d,1,1.257,2,1,21,3,1,nonTarget,L,,,,,,,,,,,,,,,,,,,,,,
1271.326,,,,,,,,JR,2024-01-21_16h18.11.892,Mental Fatigue Training Session,2020.2.4,MacIntel,60,,,,,,,,,,,,,,,,,,,,,k,,,,,,,,,,,,,,,,,,,,,,,,,,,,,,,,,,,,d,0,1.103,2,2,22,4,1,target,T,,,,,,,,,,,,,,,,,,,,,,
1274.659,,,,,,,,JR,2024-01-21_16h18.11.892,Mental Fatigue Training Session,2020.2.4,MacIntel,60,,,,,,,,,,,,,,,,,,,,,d,,,,,,,,,,,,,,,,,,,,,,,,,,,,,,,,,,,,d,1,1.007,2,3,23,9,1,nonTarget,L,,,,,,,,,,,,,,,,,,,,,,
1277.893,,,,,,,,JR,2024-01-21_16h18.11.892,Mental Fatigue Training Session,2020.2.4,MacIntel,60,,,,,,,,,,,,,,,,,,,,,k,,,,,,,,,,,,,,,,,,,,,,,,,,,,,,,,,,,,d,0,1.201,2,4,24,2,1,target,T,,,,,,,,,,,,,,,,,,,,,,
1281.326,,,,,,,,JR,2024-01-21_16h18.11.892,Mental Fatigue Training Session,2020.2.4,MacIntel,60,,,,,,,,,,,,,,,,,,,,,k,,,,,,,,,,,,,,,,,,,,,,,,,,,,,,,,,,,,k,1,1.133,2,5,25,6,1,target,T,,,,,,,,,,,,,,,,,,,,,,
1284.693,,,,,,,,JR,2024-01-21_16h18.11.892,Mental Fatigue Training Session,2020.2.4,MacIntel,60,,,,,,,,,,,,,,,,,,,,,k,,,,,,,,,,,,,,,,,,,,,,,,,,,,,,,,,,,,d,0,1.614,2,6,26,8,1,target,T,,,,,,,,,,,,,,,,,,,,,,
1288.56,,,,,,,,JR,2024-01-21_16h18.11.892,Mental Fatigue Training Session,2020.2.4,MacIntel,60,,,,,,,,,,,,,,,,,,,,,d,,,,,,,,,,,,,,,,,,,,,,,,,,,,,,,,,,,,d,1,2.371,2,7,27,5,1,nonTarget,L,,,,,,,,,,,,,,,,,,,,,,
1293.16,,,,,,,,JR,2024-01-21_16h18.11.892,Mental Fatigue Training Session,2020.2.4,MacIntel,60,,,,,,,,,,,,,,,,,,,,,d,,,,,,,,,,,,,,,,,,,,,,,,,,,,,,,,,,,,d,1,1.852,2,8,28,1,1,nonTarget,L,,,,,,,,,,,,,,,,,,,,,,
1297.259,,,,,,,,JR,2024-01-21_16h18.11.892,Mental Fatigue Training Session,2020.2.4,MacIntel,60,,,,,,,,,,,,,,,,,,,,,k,,,,,,,,,,,,,,,,,,,,,,,,,,,,,,,,,,,,k,1,1.306,2,9,29,0,1,target,T,,,,,,,,,,,,,,,,,,,,,,
1300.793,,,,,,,,JR,2024-01-21_16h18.11.892,Mental Fatigue Training Session,2020.2.4,MacIntel,60,,,,,,,,,,,,,,,,,,,,,d,,,,,,,,,,,,,,,,,,,,,,,,,,,,,,,,,,,,d,1,1.547,3,0,30,5,1,nonTarget,L,,,,,,,,,,,,,,,,,,,,,,
1304.594,,,,,,,,JR,2024-01-21_16h18.11.892,Mental Fatigue Training Session,2020.2.4,MacIntel,60,,,,,,,,,,,,,,,,,,,,,k,,,,,,,,,,,,,,,,,,,,,,,,,,,,,,,,,,,,k,1,1.035,3,1,31,6,1,target,T,,,,,,,,,,,,,,,,,,,,,,
1307.86,,,,,,,,JR,2024-01-21_16h18.11.892,Mental Fatigue Training Session,2020.2.4,MacIntel,60,,,,,,,,,,,,,,,,,,,,,k,,,,,,,,,,,,,,,,,,,,,,,,,,,,,,,,,,,,k,1,0.706,3,2,32,8,1,target,T,,,,,,,,,,,,,,,,,,,,,,
1310.796,,,,,,,,JR,2024-01-21_16h18.11.892,Mental Fatigue Training Session,2020.2.4,MacIntel,60,,,,,,,,,,,,,,,,,,,,,k,,,,,,,,,,,,,,,,,,,,,,,,,,,,,,,,,,,,k,1,1.081,3,3,33,4,1,target,T,,,,,,,,,,,,,,,,,,,,,,
1314.128,,,,,,,,JR,2024-01-21_16h18.11.892,Mental Fatigue Training Session,2020.2.4,MacIntel,60,,,,,,,,,,,,,,,,,,,,,d,,,,,,,,,,,,,,,,,,,,,,,,,,,,,,,,,,,,d,1,2.382,3,4,34,1,1,nonTarget,L,,,,,,,,,,,,,,,,,,,,,,
1318.761,,,,,,,,JR,2024-01-21_16h18.11.892,Mental Fatigue Training Session,2020.2.4,MacIntel,60,,,,,,,,,,,,,,,,,,,,,k,,,,,,,,,,,,,,,,,,,,,,,,,,,,,,,,,,,,k,1,0.753,3,5,35,2,1,target,T,,,,,,,,,,,,,,,,,,,,,,
1321.761,,,,,,,,JR,2024-01-21_16h18.11.892,Mental Fatigue Training Session,2020.2.4,MacIntel,60,,,,,,,,,,,,,,,,,,,,,d,,,,,,,,,,,,,,,,,,,,,,,,,,,,,,,,,,,,d,1,1.823,3,6,36,7,1,nonTarget,L,,,,,,,,,,,,,,,,,,,,,,
1325.828,,,,,,,,JR,2024-01-21_16h18.11.892,Mental Fatigue Training Session,2020.2.4,MacIntel,60,,,,,,,,,,,,,,,,,,,,,d,,,,,,,,,,,,,,,,,,,,,,,,,,,,,,,,,,,,d,1,1.715,3,7,37,9,1,nonTarget,L,,,,,,,,,,,,,,,,,,,,,,
1329.795,,,,,,,,JR,2024-01-21_16h18.11.892,Mental Fatigue Training Session,2020.2.4,MacIntel,60,,,,,,,,,,,,,,,,,,,,,d,,,,,,,,,,,,,,,,,,,,,,,,,,,,,,,,,,,,d,1,1.236,3,8,38,3,1,nonTarget,L,,,,,,,,,,,,,,,,,,,,,,
1333.261,,,,,,,,JR,2024-01-21_16h18.11.892,Mental Fatigue Training Session,2020.2.4,MacIntel,60,,,,,,,,,,,,,,,,,,,,,k,,,,,,,,,,,,,,,,,,,,,,,,,,,,,,,,,,,,k,1,1.137,3,9,39,0,1,target,T,,,,,,,,,,,,,,,,,,,,,,
1336.628,,,,,,,,JR,2024-01-21_16h18.11.892,Mental Fatigue Training Session,2020.2.4,MacIntel,60,,,,,,,,,,,,,,,,,,,,,d,,,,,,,,,,,,,,,,,,,,,,,,,,,,,,,,,,,,d,1,1.288,4,0,40,3,1,nonTarget,L,,,,,,,,,,,,,,,,,,,,,,
1340.162,,,,,,,,JR,2024-01-21_16h18.11.892,Mental Fatigue Training Session,2020.2.4,MacIntel,60,,,,,,,,,,,,,,,,,,,,,d,,,,,,,,,,,,,,,,,,,,,,,,,,,,,,,,,,,,d,1,1.546,4,1,41,7,1,nonTarget,L,,,,,,,,,,,,,,,,,,,,,,
1343.961,,,,,,,,JR,2024-01-21_16h18.11.892,Mental Fatigue Training Session,2020.2.4,MacIntel,60,,,,,,,,,,,,,,,,,,,,,k,,,,,,,,,,,,,,,,,,,,,,,,,,,,,,,,,,,,k,1,0.957,4,2,42,4,1,target,T,,,,,,,,,,,,,,,,,,,,,,
1347.162,,,,,,,,JR,2024-01-21_16h18.11.892,Mental Fatigue Training Session,2020.2.4,MacIntel,60,,,,,,,,,,,,,,,,,,,,,d,,,,,,,,,,,,,,,,,,,,,,,,,,,,,,,,,,,,d,1,1.301,4,3,43,1,1,nonTarget,L,,,,,,,,,,,,,,,,,,,,,,
1350.695,,,,,,,,JR,2024-01-21_16h18.11.892,Mental Fatigue Training Session,2020.2.4,MacIntel,60,,,,,,,,,,,,,,,,,,,,,d,,,,,,,,,,,,,,,,,,,,,,,,,,,,,,,,,,,,d,1,1.274,4,4,44,5,1,nonTarget,L,,,,,,,,,,,,,,,,,,,,,,
1354.196,,,,,,,,JR,2024-01-21_16h18.11.892,Mental Fatigue Training Session,2020.2.4,MacIntel,60,,,,,,,,,,,,,,,,,,,,,k,,,,,,,,,,,,,,,,,,,,,,,,,,,,,,,,,,,,k,1,0.871,4,5,45,8,1,target,T,,,,,,,,,,,,,,,,,,,,,,
1357.296,,,,,,,,JR,2024-01-21_16h18.11.892,Mental Fatigue Training Session,2020.2.4,MacIntel,60,,,,,,,,,,,,,,,,,,,,,k,,,,,,,,,,,,,,,,,,,,,,,,,,,,,,,,,,,,d,0,2.008,4,6,46,2,1,target,T,,,,,,,,,,,,,,,,,,,,,,
1361.529,,,,,,,,JR,2024-01-21_16h18.11.892,Mental Fatigue Training Session,2020.2.4,MacIntel,60,,,,,,,,,,,,,,,,,,,,,d,,,,,,,,,,,,,,,,,,,,,,,,,,,,,,,,,,,,d,1,1.422,4,7,47,9,1,nonTarget,L,,,,,,,,,,,,,,,,,,,,,,
1365.196,,,,,,,,JR,2024-01-21_16h18.11.892,Mental Fatigue Training Session,2020.2.4,MacIntel,60,,,,,,,,,,,,,,,,,,,,,k,,,,,,,,,,,,,,,,,,,,,,,,,,,,,,,,,,,,k,1,1.013,4,8,48,6,1,target,T,,,,,,,,,,,,,,,,,,,,,,
1368.43,,,,,,,,JR,2024-01-21_16h18.11.892,Mental Fatigue Training Session,2020.2.4,MacIntel,60,,,,,,,,,,,,,,,,,,,,,k,,,,,,,,,,,,,,,,,,,,,,,,,,,,,,,,,,,,k,1,1.357,4,9,49,0,1,target,T,,,,,,,,,,,,,,,,,,,,,,
1372.03,,,,,,,,JR,2024-01-21_16h18.11.892,Mental Fatigue Training Session,2020.2.4,MacIntel,60,,,,,,,,,,,,,,,,,,,,,d,,,,,,,,,,,,,,,,,,,,,,,,,,,,,,,,,,,,d,1,2.151,5,0,50,3,1,nonTarget,L,,,,,,,,,,,,,,,,,,,,,,
1376.43,,,,,,,,JR,2024-01-21_16h18.11.892,Mental Fatigue Training Session,2020.2.4,MacIntel,60,,,,,,,,,,,,,,,,,,,,,d,,,,,,,,,,,,,,,,,,,,,,,,,,,,,,,,,,,,d,1,1.739,5,1,51,9,1,nonTarget,L,,,,,,,,,,,,,,,,,,,,,,
1380.397,,,,,,,,JR,2024-01-21_16h18.11.892,Mental Fatigue Training Session,2020.2.4,MacIntel,60,,,,,,,,,,,,,,,,,,,,,k,,,,,,,,,,,,,,,,,,,,,,,,,,,,,,,,,,,,k,1,3.407,5,2,52,0,1,target,T,,,,,,,,,,,,,,,,,,,,,,
1386.03,,,,,,,,JR,2024-01-21_16h18.11.892,Mental Fatigue Training Session,2020.2.4,MacIntel,60,,,,,,,,,,,,,,,,,,,,,d,,,,,,,,,,,,,,,,,,,,,,,,,,,,,,,,,,,,d,1,3.278,5,3,53,1,1,nonTarget,L,,,,,,,,,,,,,,,,,,,,,,
1391.53,,,,,,,,JR,2024-01-21_16h18.11.892,Mental Fatigue Training Session,2020.2.4,MacIntel,60,,,,,,,,,,,,,,,,,,,,,k,,,,,,,,,,,,,,,,,,,,,,,,,,,,,,,,,,,,k,1,0.918,5,4,54,6,1,target,T,,,,,,,,,,,,,,,,,,,,,,
1394.697,,,,,,,,JR,2024-01-21_16h18.11.892,Mental Fatigue Training Session,2020.2.4,MacIntel,60,,,,,,,,,,,,,,,,,,,,,k,,,,,,,,,,,,,,,,,,,,,,,,,,,,,,,,,,,,k,1,1.603,5,5,55,2,1,target,T,,,,,,,,,,,,,,,,,,,,,,
1398.531,,,,,,,,JR,2024-01-21_16h18.11.892,Mental Fatigue Training Session,2020.2.4,MacIntel,60,,,,,,,,,,,,,,,,,,,,,d,,,,,,,,,,,,,,,,,,,,,,,,,,,,,,,,,,,,d,1,2.305,5,6,56,5,1,nonTarget,L,,,,,,,,,,,,,,,,,,,,,,
1403.064,,,,,,,,JR,2024-01-21_16h18.11.892,Mental Fatigue Training Session,2020.2.4,MacIntel,60,,,,,,,,,,,,,,,,,,,,,k,,,,,,,,,,,,,,,,,,,,,,,,,,,,,,,,,,,,k,1,1.495,5,7,57,8,1,target,T,,,,,,,,,,,,,,,,,,,,,,
1406.797,,,,,,,,JR,2024-01-21_16h18.11.892,Mental Fatigue Training Session,2020.2.4,MacIntel,60,,,,,,,,,,,,,,,,,,,,,d,,,,,,,,,,,,,,,,,,,,,,,,,,,,,,,,,,,,d,1,1.644,5,8,58,7,1,nonTarget,L,,,,,,,,,,,,,,,,,,,,,,
1410.665,,,,,,,,JR,2024-01-21_16h18.11.892,Mental Fatigue Training Session,2020.2.4,MacIntel,60,,,,,,,,,,,,,,,,,,,,,k,,,,,,,,,,,,,,,,,,,,,,,,,,,,,,,,,,,,k,1,0.785,5,9,59,4,1,target,T,,,,,,,,,,,,,,,,,,,,,,
1413.698,,,,,,,,JR,2024-01-21_16h18.11.892,Mental Fatigue Training Session,2020.2.4,MacIntel,60,,,,,,,,,,,,,,,,,,,,,k,,,,,,,,,,,,,,,,,,,,,,,,,,,,,,,,,,,,k,1,0.823,6,0,60,2,1,target,T,,,,,,,,,,,,,,,,,,,,,,
1416.765,,,,,,,,JR,2024-01-21_16h18.11.892,Mental Fatigue Training Session,2020.2.4,MacIntel,60,,,,,,,,,,,,,,,,,,,,,d,,,,,,,,,,,,,,,,,,,,,,,,,,,,,,,,,,,,d,1,1.152,6,1,61,3,1,nonTarget,L,,,,,,,,,,,,,,,,,,,,,,
1420.165,,,,,,,,JR,2024-01-21_16h18.11.892,Mental Fatigue Training Session,2020.2.4,MacIntel,60,,,,,,,,,,,,,,,,,,,,,d,,,,,,,,,,,,,,,,,,,,,,,,,,,,,,,,,,,,d,1,1.224,6,2,62,7,1,nonTarget,L,,,,,,,,,,,,,,,,,,,,,,
1423.632,,,,,,,,JR,2024-01-21_16h18.11.892,Mental Fatigue Training Session,2020.2.4,MacIntel,60,,,,,,,,,,,,,,,,,,,,,k,,,,,,,,,,,,,,,,,,,,,,,,,,,,,,,,,,,,k,1,1.072,6,3,63,6,1,target,T,,,,,,,,,,,,,,,,,,,,,,
1426.932,,,,,,,,JR,2024-01-21_16h18.11.892,Mental Fatigue Training Session,2020.2.4,MacIntel,60,,,,,,,,,,,,,,,,,,,,,d,,,,,,,,,,,,,,,,,,,,,,,,,,,,,,,,,,,,d,1,1.18,6,4,64,9,1,nonTarget,L,,,,,,,,,,,,,,,,,,,,,,
1430.365,,,,,,,,JR,2024-01-21_16h18.11.892,Mental Fatigue Training Session,2020.2.4,MacIntel,60,,,,,,,,,,,,,,,,,,,,,k,,,,,,,,,,,,,,,,,,,,,,,,,,,,,,,,,,,,k,1,0.63,6,5,65,8,1,target,T,,,,,,,,,,,,,,,,,,,,,,
1433.232,,,,,,,,JR,2024-01-21_16h18.11.892,Mental Fatigue Training Session,2020.2.4,MacIntel,60,,,,,,,,,,,,,,,,,,,,,d,,,,,,,,,,,,,,,,,,,,,,,,,,,,,,,,,,,,d,1,0.973,6,6,66,5,1,nonTarget,L,,,,,,,,,,,,,,,,,,,,,,
1436.432,,,,,,,,JR,2024-01-21_16h18.11.892,Mental Fatigue Training Session,2020.2.4,MacIntel,60,,,,,,,,,,,,,,,,,,,,,k,,,,,,,,,,,,,,,,,,,,,,,,,,,,,,,,,,,,d,0,0.858,6,7,67,4,1,target,T,,,,,,,,,,,,,,,,,,,,,,
1439.532,,,,,,,,JR,2024-01-21_16h18.11.892,Mental Fatigue Training Session,2020.2.4,MacIntel,60,,,,,,,,,,,,,,,,,,,,,k,,,,,,,,,,,,,,,,,,,,,,,,,,,,,,,,,,,,k,1,1.129,6,8,68,0,1,target,T,,,,,,,,,,,,,,,,,,,,,,
1442.898,,,,,,,,JR,2024-01-21_16h18.11.892,Mental Fatigue Training Session,2020.2.4,MacIntel,60,,,,,,,,,,,,,,,,,,,,,d,,,,,,,,,,,,,,,,,,,,,,,,,,,,,,,,,,,,d,1,1.395,6,9,69,1,1,nonTarget,L,,,,,,,,,,,,,,,,,,,,,,
1446.532,,,,,,,,JR,2024-01-21_16h18.11.892,Mental Fatigue Training Session,2020.2.4,MacIntel,60,,,,,,,,,,,,,,,,,,,,,k,,,,,,,,,,,,,,,,,,,,,,,,,,,,,,,,,,,,k,1,1.331,7,0,70,6,1,target,T,,,,,,,,,,,,,,,,,,,,,,
1450.099,,,,,,,,JR,2024-01-21_16h18.11.892,Mental Fatigue Training Session,2020.2.4,MacIntel,60,,,,,,,,,,,,,,,,,,,,,d,,,,,,,,,,,,,,,,,,,,,,,,,,,,,,,,,,,,d,1,1.515,7,1,71,5,1,nonTarget,L,,,,,,,,,,,,,,,,,,,,,,
1453.833,,,,,,,,JR,2024-01-21_16h18.11.892,Mental Fatigue Training Session,2020.2.4,MacIntel,60,,,,,,,,,,,,,,,,,,,,,d,,,,,,,,,,,,,,,,,,,,,,,,,,,,,,,,,,,,d,1,1.387,7,2,72,1,1,nonTarget,L,,,,,,,,,,,,,,,,,,,,,,
1457.466,,,,,,,,JR,2024-01-21_16h18.11.892,Mental Fatigue Training Session,2020.2.4,MacIntel,60,,,,,,,,,,,,,,,,,,,,,d,,,,,,,,,,,,,,,,,,,,,,,,,,,,,,,,,,,,d,1,1.379,7,3,73,3,1,nonTarget,L,,,,,,,,,,,,,,,,,,,,,,
1461.066,,,,,,,,JR,2024-01-21_16h18.11.892,Mental Fatigue Training Session,2020.2.4,MacIntel,60,,,,,,,,,,,,,,,,,,,,,d,,,,,,,,,,,,,,,,,,,,,,,,,,,,,,,,,,,,d,1,1.191,7,4,74,9,1,nonTarget,L,,,,,,,,,,,,,,,,,,,,,,
1464.501,,,,,,,,JR,2024-01-21_16h18.11.892,Mental Fatigue Training Session,2020.2.4,MacIntel,60,,,,,,,,,,,,,,,,,,,,,k,,,,,,,,,,,,,,,,,,,,,,,,,,,,,,,,,,,,k,1,0.926,7,5,75,2,1,target,T,,,,,,,,,,,,,,,,,,,,,,
1467.667,,,,,,,,JR,2024-01-21_16h18.11.892,Mental Fatigue Training Session,2020.2.4,MacIntel,60,,,,,,,,,,,,,,,,,,,,,k,,,,,,,,,,,,,,,,,,,,,,,,,,,,,,,,,,,,k,1,0.779,7,6,76,0,1,target,T,,,,,,,,,,,,,,,,,,,,,,
1470.667,,,,,,,,JR,2024-01-21_16h18.11.892,Mental Fatigue Training Session,2020.2.4,MacIntel,60,,,,,,,,,,,,,,,,,,,,,k,,,,,,,,,,,,,,,,,,,,,,,,,,,,,,,,,,,,d,0,1.144,7,7,77,4,1,target,T,,,,,,,,,,,,,,,,,,,,,,
1474.034,,,,,,,,JR,2024-01-21_16h18.11.892,Mental Fatigue Training Session,2020.2.4,MacIntel,60,,,,,,,,,,,,,,,,,,,,,k,,,,,,,,,,,,,,,,,,,,,,,,,,,,,,,,,,,,k,1,0.744,7,8,78,8,1,target,T,,,,,,,,,,,,,,,,,,,,,,
1477.001,,,,,,,,JR,2024-01-21_16h18.11.892,Mental Fatigue Training Session,2020.2.4,MacIntel,60,,,,,,,,,,,,,,,,,,,,,d,,,,,,,,,,,,,,,,,,,,,,,,,,,,,,,,,,,,d,1,1.838,7,9,79,7,1,nonTarget,L,,,,,,,,,,,,,,,,,,,,,,
1481.067,,,,,,,,JR,2024-01-21_16h18.11.892,Mental Fatigue Training Session,2020.2.4,MacIntel,60,,,,,,,,,,,,,,,,,,,,,k,,,,,,,,,,,,,,,,,,,,,,,,,,,,,,,,,,,,k,1,3.884,8,0,80,0,1,target,T,,,,,,,,,,,,,,,,,,,,,,
1487.168,,,,,,,,JR,2024-01-21_16h18.11.892,Mental Fatigue Training Session,2020.2.4,MacIntel,60,,,,,,,,,,,,,,,,,,,,,d,,,,,,,,,,,,,,,,,,,,,,,,,,,,,,,,,,,,d,1,2.104,8,1,81,7,1,nonTarget,L,,,,,,,,,,,,,,,,,,,,,,
1491.501,,,,,,,,JR,2024-01-21_16h18.11.892,Mental Fatigue Training Session,2020.2.4,MacIntel,60,,,,,,,,,,,,,,,,,,,,,d,,,,,,,,,,,,,,,,,,,,,,,,,,,,,,,,,,,,d,1,2.134,8,2,82,9,1,nonTarget,L,,,,,,,,,,,,,,,,,,,,,,
1495.868,,,,,,,,JR,2024-01-21_16h18.11.892,Mental Fatigue Training Session,2020.2.4,MacIntel,60,,,,,,,,,,,,,,,,,,,,,k,,,,,,,,,,,,,,,,,,,,,,,,,,,,,,,,,,,,k,1,1.617,8,3,83,4,1,target,T,,,,,,,,,,,,,,,,,,,,,,
1499.736,,,,,,,,JR,2024-01-21_16h18.11.892,Mental Fatigue Training Session,2020.2.4,MacIntel,60,,,,,,,,,,,,,,,,,,,,,k,,,,,,,,,,,,,,,,,,,,,,,,,,,,,,,,,,,,k,1,1.24,8,4,84,6,1,target,T,,,,,,,,,,,,,,,,,,,,,,
1636.441,,,,,,,,JR,2024-01-21_16h18.11.892,Mental Fatigue Training Session,2020.2.4,MacIntel,60,,,,,,,,,,,,,,,,,,,,,,,,,,,,,,,,,,,,,,,,,,,,,,,,,,,,,,,,,,,,,,,,,,,51.103,right,51.085,right,83.276,0,0,0,0,1,,,,,,,,,,,,
1643.74,,,,,,,,JR,2024-01-21_16h18.11.892,Mental Fatigue Training Session,2020.2.4,MacIntel,60,,,,,,,,,,,,,,,,,,,,,,,,,,,,,,,,,,,,,,,,,,,,,,,,,,,,,,,,,,,,,,,,,,,,,,right,7.253,1,0,1,0,1,,,,,,,,,,,,
1645.342,,,,,,,,JR,2024-01-21_16h18.11.892,Mental Fatigue Training Session,2020.2.4,MacIntel,60,,,,,,,,,,,,,,,,,,,,,,,,,,,,,,,,,,,,,,,,,,,,,,,,,,,,,,,,,,,,,,,,,,,,,,right,1.585,2,0,2,0,1,,,,,,,,,,,,
1647.676,,,,,,,,JR,2024-01-21_16h18.11.892,Mental Fatigue Training Session,2020.2.4,MacIntel,60,,,,,,,,,,,,,,,,,,,,,,,,,,,,,,,,,,,,,,,,,,,,,,,,,,,,,,,,,,,,,,,,,,,,,,right,2.311,3,0,3,0,1,,,,,,,,,,,,
1654.575,,,,,,,,JR,2024-01-21_16h18.11.892,Mental Fatigue Training Session,2020.2.4,MacIntel,60,,,,,,,,,,,,,,,,,,,,,,,,,,,,,,,,,,,,,,,,,,,,,,,,,,,,,,,,,,,,,,,,,,,,,,k,6.877,4,0,4,0,1,,,,,,,,,,,,
1655.849,,,,,,,,JR,2024-01-21_16h18.11.892,Mental Fatigue Training Session,2020.2.4,MacIntel,60,,,,,,,,,,,,,,,,,,,,,k,,,,,,,,,,,,,,,,,,,,,,,,,,,,,,,,,,,,,,,,,,,,,,,,,,,,,,,,k,1,1.131,0,0,0,16,1,19_0.jpg,0,,
1659.191,,,,,,,,JR,2024-01-21_16h18.11.892,Mental Fatigue Training Session,2020.2.4,MacIntel,60,,,,,,,,,,,,,,,,,,,,,k,,,,,,,,,,,,,,,,,,,,,,,,,,,,,,,,,,,,,,,,,,,,,,,,,,,,,,,,d,0,0.983,0,1,1,38,1,23_50.jpg,50,,
1662.391,,,,,,,,JR,2024-01-21_16h18.11.892,Mental Fatigue Training Session,2020.2.4,MacIntel,60,,,,,,,,,,,,,,,,,,,,,k,,,,,,,,,,,,,,,,,,,,,,,,,,,,,,,,,,,,,,,,,,,,,,,,,,,,,,,,k,1,0.982,0,2,2,0,1,1_0.jpg,0,,
1665.591,,,,,,,,JR,2024-01-21_16h18.11.892,Mental Fatigue Training Session,2020.2.4,MacIntel,60,,,,,,,,,,,,,,,,,,,,,d,,,,,,,,,,,,,,,,,,,,,,,,,,,,,,,,,,,,,,,,,,,,,,,,,,,,,,,,d,1,0.817,0,3,3,13,1,8_150_R.jpg,150,,
1668.625,,,,,,,,JR,2024-01-21_16h18.11.892,Mental Fatigue Training Session,2020.2.4,MacIntel,60,,,,,,,,,,,,,,,,,,,,,k,,,,,,,,,,,,,,,,,,,,,,,,,,,,,,,,,,,,,,,,,,,,,,,,,,,,,,,,k,1,0.896,0,4,4,80,1,43_0.jpg,0,,
1671.759,,,,,,,,JR,2024-01-21_16h18.11.892,Mental Fatigue Training Session,2020.2.4,MacIntel,60,,,,,,,,,,,,,,,,,,,,,d,,,,,,,,,,,,,,,,,,,,,,,,,,,,,,,,,,,,,,,,,,,,,,,,,,,,,,,,d,1,1.252,0,5,5,85,1,43_150_R.jpg,150,,
1675.225,,,,,,,,JR,2024-01-21_16h18.11.892,Mental Fatigue Training Session,2020.2.4,MacIntel,60,,,,,,,,,,,,,,,,,,,,,k,,,,,,,,,,,,,,,,,,,,,,,,,,,,,,,,,,,,,,,,,,,,,,,,,,,,,,,,d,0,1.082,0,6,6,86,1,43_50.jpg,50,,
1678.525,,,,,,,,JR,2024-01-21_16h18.11.892,Mental Fatigue Training Session,2020.2.4,MacIntel,60,,,,,,,,,,,,,,,,,,,,,d,,,,,,,,,,,,,,,,,,,,,,,,,,,,,,,,,,,,,,,,,,,,,,,,,,,,,,,,d,1,1.152,0,7,7,83,1,43_100_R.jpg,100,,
1681.892,,,,,,,,JR,2024-01-21_16h18.11.892,Mental Fatigue Training Session,2020.2.4,MacIntel,60,,,,,,,,,,,,,,,,,,,,,d,,,,,,,,,,,,,,,,,,,,,,,,,,,,,,,,,,,,,,,,,,,,,,,,,,,,,,,,k,0,1.78,0,8,8,51,1,29_100_R.jpg,100,,
1685.897,,,,,,,,JR,2024-01-21_16h18.11.892,Mental Fatigue Training Session,2020.2.4,MacIntel,60,,,,,,,,,,,,,,,,,,,,,k,,,,,,,,,,,,,,,,,,,,,,,,,,,,,,,,,,,,,,,,,,,,,,,,,,,,,,,,d,0,2.189,0,9,9,84,1,43_150.jpg,150,,
1690.292,,,,,,,,JR,2024-01-21_16h18.11.892,Mental Fatigue Training Session,2020.2.4,MacIntel,60,,,,,,,,,,,,,,,,,,,,,k,,,,,,,,,,,,,,,,,,,,,,,,,,,,,,,,,,,,,,,,,,,,,,,,,,,,,,,,k,1,1.251,0,10,10,8,1,8_0.jpg,0,,
1693.759,,,,,,,,JR,2024-01-21_16h18.11.892,Mental Fatigue Training Session,2020.2.4,MacIntel,60,,,,,,,,,,,,,,,,,,,,,d,,,,,,,,,,,,,,,,,,,,,,,,,,,,,,,,,,,,,,,,,,,,,,,,,,,,,,,,k,0,2.091,0,11,11,39,1,23_50_R.jpg,50,,
1698.093,,,,,,,,JR,2024-01-21_16h18.11.892,Mental Fatigue Training Session,2020.2.4,MacIntel,60,,,,,,,,,,,,,,,,,,,,,k,,,,,,,,,,,,,,,,,,,,,,,,,,,,,,,,,,,,,,,,,,,,,,,,,,,,,,,,k,1,3.827,0,12,12,6,1,1_50.jpg,50,,
1704.159,,,,,,,,JR,2024-01-21_16h18.11.892,Mental Fatigue Training Session,2020.2.4,MacIntel,60,,,,,,,,,,,,,,,,,,,,,k,,,,,,,,,,,,,,,,,,,,,,,,,,,,,,,,,,,,,,,,,,,,,,,,,,,,,,,,k,1,1.203,0,13,13,94,1,48_50.jpg,50,,
1707.593,,,,,,,,JR,2024-01-21_16h18.11.892,Mental Fatigue Training Session,2020.2.4,MacIntel,60,,,,,,,,,,,,,,,,,,,,,d,,,,,,,,,,,,,,,,,,,,,,,,,,,,,,,,,,,,,,,,,,,,,,,,,,,,,,,,k,0,1.423,0,14,14,57,1,30_0_R.jpg,0,,
1711.227,,,,,,,,JR,2024-01-21_16h18.11.892,Mental Fatigue Training Session,2020.2.4,MacIntel,60,,,,,,,,,,,,,,,,,,,,,k,,,,,,,,,,,,,,,,,,,,,,,,,,,,,,,,,,,,,,,,,,,,,,,,,,,,,,,,k,1,3.096,0,15,15,60,1,30_150.jpg,150,,
1716.56,,,,,,,,JR,2024-01-21_16h18.11.892,Mental Fatigue Training Session,2020.2.4,MacIntel,60,,,,,,,,,,,,,,,,,,,,,k,,,,,,,,,,,,,,,,,,,,,,,,,,,,,,,,,,,,,,,,,,,,,,,,,,,,,,,,k,1,2.897,0,16,16,24,1,21_0.jpg,0,,
1721.694,,,,,,,,JR,2024-01-21_16h18.11.892,Mental Fatigue Training Session,2020.2.4,MacIntel,60,,,,,,,,,,,,,,,,,,,,,d,,,,,,,,,,,,,,,,,,,,,,,,,,,,,,,,,,,,,,,,,,,,,,,,,,,,,,,,,0,,0,17,17,31,1,21_50_R.jpg,50,,
1731.394,,,,,,,,JR,2024-01-21_16h18.11.892,Mental Fatigue Training Session,2020.2.4,MacIntel,60,,,,,,,,,,,,,,,,,,,,,d,,,,,,,,,,,,,,,,,,,,,,,,,,,,,,,,,,,,,,,,,,,,,,,,,,,,,,,,k,0,2.514,0,18,18,35,1,23_100_R.jpg,100,,
1736.128,,,,,,,,JR,2024-01-21_16h18.11.892,Mental Fatigue Training Session,2020.2.4,MacIntel,60,,,,,,,,,,,,,,,,,,,,,k,,,,,,,,,,,,,,,,,,,,,,,,,,,,,,,,,,,,,,,,,,,,,,,,,,,,,,,,k,1,1.955,0,19,19,20,1,19_150.jpg,150,,
1740.295,,,,,,,,JR,2024-01-21_16h18.11.892,Mental Fatigue Training Session,2020.2.4,MacIntel,60,,,,,,,,,,,,,,,,,,,,,d,,,,,,,,,,,,,,,,,,,,,,,,,,,,,,,,,,,,,,,,,,,,,,,,,,,,,,,,d,1,1.729,0,20,20,71,1,31_50_R.jpg,50,,
1744.262,,,,,,,,JR,2024-01-21_16h18.11.892,Mental Fatigue Training Session,2020.2.4,MacIntel,60,,,,,,,,,,,,,,,,,,,,,d,,,,,,,,,,,,,,,,,,,,,,,,,,,,,,,,,,,,,,,,,,,,,,,,,,,,,,,,d,1,1.684,0,21,21,75,1,39_100_R.jpg,100,,
1748.162,,,,,,,,JR,2024-01-21_16h18.11.892,Mental Fatigue Training Session,2020.2.4,MacIntel,60,,,,,,,,,,,,,,,,,,,,,d,,,,,,,,,,,,,,,,,,,,,,,,,,,,,,,,,,,,,,,,,,,,,,,,,,,,,,,,d,1,1.748,0,22,22,19,1,19_100_R.jpg,100,,
1752.128,,,,,,,,JR,2024-01-21_16h18.11.892,Mental Fatigue Training Session,2020.2.4,MacIntel,60,,,,,,,,,,,,,,,,,,,,,d,,,,,,,,,,,,,,,,,,,,,,,,,,,,,,,,,,,,,,,,,,,,,,,,,,,,,,,,d,1,1.594,0,23,23,41,1,25_0_R.jpg,0,,
1755.965,,,,,,,,JR,2024-01-21_16h18.11.892,Mental Fatigue Training Session,2020.2.4,MacIntel,60,,,,,,,,,,,,,,,,,,,,,k,,,,,,,,,,,,,,,,,,,,,,,,,,,,,,,,,,,,,,,,,,,,,,,,,,,,,,,,k,1,1.426,0,24,24,40,1,25_0.jpg,0,,
1759.629,,,,,,,,JR,2024-01-21_16h18.11.892,Mental Fatigue Training Session,2020.2.4,MacIntel,60,,,,,,,,,,,,,,,,,,,,,d,,,,,,,,,,,,,,,,,,,,,,,,,,,,,,,,,,,,,,,,,,,,,,,,,,,,,,,,d,1,1.092,0,25,25,25,1,21_0_R.jpg,0,,
1762.962,,,,,,,,JR,2024-01-21_16h18.11.892,Mental Fatigue Training Session,2020.2.4,MacIntel,60,,,,,,,,,,,,,,,,,,,,,k,,,,,,,,,,,,,,,,,,,,,,,,,,,,,,,,,,,,,,,,,,,,,,,,,,,,,,,,d,0,1.662,0,26,26,12,1,8_150.jpg,150,,
1766.862,,,,,,,,JR,2024-01-21_16h18.11.892,Mental Fatigue Training Session,2020.2.4,MacIntel,60,,,,,,,,,,,,,,,,,,,,,k,,,,,,,,,,,,,,,,,,,,,,,,,,,,,,,,,,,,,,,,,,,,,,,,,,,,,,,,d,0,4.22,0,27,27,58,1,30_100.jpg,100,,
1773.296,,,,,,,,JR,2024-01-21_16h18.11.892,Mental Fatigue Training Session,2020.2.4,MacIntel,60,,,,,,,,,,,,,,,,,,,,,d,,,,,,,,,,,,,,,,,,,,,,,,,,,,,,,,,,,,,,,,,,,,,,,,,,,,,,,,k,0,3.055,0,28,28,27,1,21_100_R.jpg,100,,
1778.563,,,,,,,,JR,2024-01-21_16h18.11.892,Mental Fatigue Training Session,2020.2.4,MacIntel,60,,,,,,,,,,,,,,,,,,,,,d,,,,,,,,,,,,,,,,,,,,,,,,,,,,,,,,,,,,,,,,,,,,,,,,,,,,,,,,d,1,5.538,0,29,29,95,1,48_50_R.jpg,50,,
1786.332,,,,,,,,JR,2024-01-21_16h18.11.892,Mental Fatigue Training Session,2020.2.4,MacIntel,60,,,,,,,,,,,,,,,,,,,,,k,,,,,,,,,,,,,,,,,,,,,,,,,,,,,,,,,,,,,,,,,,,,,,,,,,,,,,,,k,1,2.689,0,30,30,32,1,23_0.jpg,0,,
1791.264,,,,,,,,JR,2024-01-21_16h18.11.892,Mental Fatigue Training Session,2020.2.4,MacIntel,60,,,,,,,,,,,,,,,,,,,,,d,,,,,,,,,,,,,,,,,,,,,,,,,,,,,,,,,,,,,,,,,,,,,,,,,,,,,,,,d,1,4.359,0,31,31,89,1,48_0_R.jpg,0,,
1797.863,,,,,,,,JR,2024-01-21_16h18.11.892,Mental Fatigue Training Session,2020.2.4,MacIntel,60,,,,,,,,,,,,,,,,,,,,,k,,,,,,,,,,,,,,,,,,,,,,,,,,,,,,,,,,,,,,,,,,,,,,,,,,,,,,,,k,1,1.749,0,32,32,88,1,48_0.jpg,0,,
1801.83,,,,,,,,JR,2024-01-21_16h18.11.892,Mental Fatigue Training Session,2020.2.4,MacIntel,60,,,,,,,,,,,,,,,,,,,,,d,,,,,,,,,,,,,,,,,,,,,,,,,,,,,,,,,,,,,,,,,,,,,,,,,,,,,,,,d,1,1.517,0,33,33,65,1,31_0_R.jpg,0,,
1805.564,,,,,,,,JR,2024-01-21_16h18.11.892,Mental Fatigue Training Session,2020.2.4,MacIntel,60,,,,,,,,,,,,,,,,,,,,,d,,,,,,,,,,,,,,,,,,,,,,,,,,,,,,,,,,,,,,,,,,,,,,,,,,,,,,,,d,1,2.626,0,34,34,45,1,25_150_R.jpg,150,,
1810.431,,,,,,,,JR,2024-01-21_16h18.11.892,Mental Fatigue Training Session,2020.2.4,MacIntel,60,,,,,,,,,,,,,,,,,,,,,d,,,,,,,,,,,,,,,,,,,,,,,,,,,,,,,,,,,,,,,,,,,,,,,,,,,,,,,,d,1,2.047,0,35,35,53,1,29_150_R.jpg,150,,
1814.698,,,,,,,,JR,2024-01-21_16h18.11.892,Mental Fatigue Training Session,2020.2.4,MacIntel,60,,,,,,,,,,,,,,,,,,,,,d,,,,,,,,,,,,,,,,,,,,,,,,,,,,,,,,,,,,,,,,,,,,,,,,,,,,,,,,d,1,1.643,0,36,36,37,1,23_150_R.jpg,150,,
1818.565,,,,,,,,JR,2024-01-21_16h18.11.892,Mental Fatigue Training Session,2020.2.4,MacIntel,60,,,,,,,,,,,,,,,,,,,,,d,,,,,,,,,,,,,,,,,,,,,,,,,,,,,,,,,,,,,,,,,,,,,,,,,,,,,,,,d,1,2.228,0,37,37,47,1,25_50_R.jpg,50,,
1823.032,,,,,,,,JR,2024-01-21_16h18.11.892,Mental Fatigue Training Session,2020.2.4,MacIntel,60,,,,,,,,,,,,,,,,,,,,,k,,,,,,,,,,,,,,,,,,,,,,,,,,,,,,,,,,,,,,,,,,,,,,,,,,,,,,,,d,0,2.02,0,38,38,14,1,8_50.jpg,50,,
1827.264,,,,,,,,JR,2024-01-21_16h18.11.892,Mental Fatigue Training Session,2020.2.4,MacIntel,60,,,,,,,,,,,,,,,,,,,,,k,,,,,,,,,,,,,,,,,,,,,,,,,,,,,,,,,,,,,,,,,,,,,,,,,,,,,,,,k,1,4.35,0,39,39,22,1,19_50.jpg,50,,
1833.832,,,,,,,,JR,2024-01-21_16h18.11.892,Mental Fatigue Training Session,2020.2.4,MacIntel,60,,,,,,,,,,,,,,,,,,,,,k,,,,,,,,,,,,,,,,,,,,,,,,,,,,,,,,,,,,,,,,,,,,,,,,,,,,,,,,k,1,4.656,0,40,40,72,1,39_0.jpg,0,,
1840.699,,,,,,,,JR,2024-01-21_16h18.11.892,Mental Fatigue Training Session,2020.2.4,MacIntel,60,,,,,,,,,,,,,,,,,,,,,k,,,,,,,,,,,,,,,,,,,,,,,,,,,,,,,,,,,,,,,,,,,,,,,,,,,,,,,,d,0,3.159,0,41,41,68,1,31_150.jpg,150,,
1846.101,,,,,,,,JR,2024-01-21_16h18.11.892,Mental Fatigue Training Session,2020.2.4,MacIntel,60,,,,,,,,,,,,,,,,,,,,,k,,,,,,,,,,,,,,,,,,,,,,,,,,,,,,,,,,,,,,,,,,,,,,,,,,,,,,,,k,1,3.626,0,42,42,52,1,29_150.jpg,150,,
1851.966,,,,,,,,JR,2024-01-21_16h18.11.892,Mental Fatigue Training Session,2020.2.4,MacIntel,60,,,,,,,,,,,,,,,,,,,,,k,,,,,,,,,,,,,,,,,,,,,,,,,,,,,,,,,,,,,,,,,,,,,,,,,,,,,,,,k,1,2.865,0,43,43,54,1,29_50.jpg,50,,
1857.066,,,,,,,,JR,2024-01-21_16h18.11.892,Mental Fatigue Training Session,2020.2.4,MacIntel,60,,,,,,,,,,,,,,,,,,,,,k,,,,,,,,,,,,,,,,,,,,,,,,,,,,,,,,,,,,,,,,,,,,,,,,,,,,,,,,d,0,2.93,0,44,44,30,1,21_50.jpg,50,,
1862.233,,,,,,,,JR,2024-01-21_16h18.11.892,Mental Fatigue Training Session,2020.2.4,MacIntel,60,,,,,,,,,,,,,,,,,,,,,d,,,,,,,,,,,,,,,,,,,,,,,,,,,,,,,,,,,,,,,,,,,,,,,,,,,,,,,,d,1,3.444,0,45,45,43,1,25_100_R.jpg,100,,
1867.9,,,,,,,,JR,2024-01-21_16h18.11.892,Mental Fatigue Training Session,2020.2.4,MacIntel,60,,,,,,,,,,,,,,,,,,,,,d,,,,,,,,,,,,,,,,,,,,,,,,,,,,,,,,,,,,,,,,,,,,,,,,,,,,,,,,d,1,2.935,0,46,46,67,1,31_100_R.jpg,100,,
1873.067,,,,,,,,JR,2024-01-21_16h18.11.892,Mental Fatigue Training Session,2020.2.4,MacIntel,60,,,,,,,,,,,,,,,,,,,,,k,,,,,,,,,,,,,,,,,,,,,,,,,,,,,,,,,,,,,,,,,,,,,,,,,,,,,,,,d,0,4.289,0,47,47,44,1,25_150.jpg,150,,
1879.567,,,,,,,,JR,2024-01-21_16h18.11.892,Mental Fatigue Training Session,2020.2.4,MacIntel,60,,,,,,,,,,,,,,,,,,,,,d,,,,,,,,,,,,,,,,,,,,,,,,,,,,,,,,,,,,,,,,,,,,,,,,,,,,,,,,k,0,2.619,0,48,48,9,1,8_0_R.jpg,0,,
1884.401,,,,,,,,JR,2024-01-21_16h18.11.892,Mental Fatigue Training Session,2020.2.4,MacIntel,60,,,,,,,,,,,,,,,,,,,,,d,,,,,,,,,,,,,,,,,,,,,,,,,,,,,,,,,,,,,,,,,,,,,,,,,,,,,,,,k,0,3.944,0,49,49,93,1,48_150_R.jpg,150,,
1890.567,,,,,,,,JR,2024-01-21_16h18.11.892,Mental Fatigue Training Session,2020.2.4,MacIntel,60,,,,,,,,,,,,,,,,,,,,,d,,,,,,,,,,,,,,,,,,,,,,,,,,,,,,,,,,,,,,,,,,,,,,,,,,,,,,,,d,1,2.156,0,50,50,7,1,1_50_R.jpg,50,,
1894.966,,,,,,,,JR,2024-01-21_16h18.11.892,Mental Fatigue Training Session,2020.2.4,MacIntel,60,,,,,,,,,,,,,,,,,,,,,k,,,,,,,,,,,,,,,,,,,,,,,,,,,,,,,,,,,,,,,,,,,,,,,,,,,,,,,,k,1,2.26,0,51,51,10,1,8_100.jpg,100,,
1899.468,,,,,,,,JR,2024-01-21_16h18.11.892,Mental Fatigue Training Session,2020.2.4,MacIntel,60,,,,,,,,,,,,,,,,,,,,,d,,,,,,,,,,,,,,,,,,,,,,,,,,,,,,,,,,,,,,,,,,,,,,,,,,,,,,,,k,0,3.359,0,52,52,81,1,43_0_R.jpg,0,,
1905.068,,,,,,,,JR,2024-01-21_16h18.11.892,Mental Fatigue Training Session,2020.2.4,MacIntel,60,,,,,,,,,,,,,,,,,,,,,d,,,,,,,,,,,,,,,,,,,,,,,,,,,,,,,,,,,,,,,,,,,,,,,,,,,,,,,,d,1,4.53,0,53,53,11,1,8_100_R.jpg,100,,
1911.834,,,,,,,,JR,2024-01-21_16h18.11.892,Mental Fatigue Training Session,2020.2.4,MacIntel,60,,,,,,,,,,,,,,,,,,,,,d,,,,,,,,,,,,,,,,,,,,,,,,,,,,,,,,,,,,,,,,,,,,,,,,,,,,,,,,k,0,3.532,0,54,54,87,1,43_50_R.jpg,50,,
1917.602,,,,,,,,JR,2024-01-21_16h18.11.892,Mental Fatigue Training Session,2020.2.4,MacIntel,60,,,,,,,,,,,,,,,,,,,,,k,,,,,,,,,,,,,,,,,,,,,,,,,,,,,,,,,,,,,,,,,,,,,,,,,,,,,,,,d,0,2.724,0,55,55,4,1,1_150.jpg,150,,
1922.535,,,,,,,,JR,2024-01-21_16h18.11.892,Mental Fatigue Training Session,2020.2.4,MacIntel,60,,,,,,,,,,,,,,,,,,,,,k,,,,,,,,,,,,,,,,,,,,,,,,,,,,,,,,,,,,,,,,,,,,,,,,,,,,,,,,k,1,2.798,0,56,56,74,1,39_100.jpg,100,,
1927.569,,,,,,,,JR,2024-01-21_16h18.11.892,Mental Fatigue Training Session,2020.2.4,MacIntel,60,,,,,,,,,,,,,,,,,,,,,k,,,,,,,,,,,,,,,,,,,,,,,,,,,,,,,,,,,,,,,,,,,,,,,,,,,,,,,,k,1,2.456,0,57,57,18,1,19_100.jpg,100,,
1932.235,,,,,,,,JR,2024-01-21_16h18.11.892,Mental Fatigue Training Session,2020.2.4,MacIntel,60,,,,,,,,,,,,,,,,,,,,,d,,,,,,,,,,,,,,,,,,,,,,,,,,,,,,,,,,,,,,,,,,,,,,,,,,,,,,,,d,1,2.726,0,58,58,21,1,19_150_R.jpg,150,,
1937.17,,,,,,,,JR,2024-01-21_16h18.11.892,Mental Fatigue Training Session,2020.2.4,MacIntel,60,,,,,,,,,,,,,,,,,,,,,k,,,,,,,,,,,,,,,,,,,,,,,,,,,,,,,,,,,,,,,,,,,,,,,,,,,,,,,,k,1,4.81,0,59,59,36,1,23_150.jpg,150,,
1944.203,,,,,,,,JR,2024-01-21_16h18.11.892,Mental Fatigue Training Session,2020.2.4,MacIntel,60,,,,,,,,,,,,,,,,,,,,,d,,,,,,,,,,,,,,,,,,,,,,,,,,,,,,,,,,,,,,,,,,,,,,,,,,,,,,,,d,1,6.912,0,60,60,49,1,29_0_R.jpg,0,,
1953.336,,,,,,,,JR,2024-01-21_16h18.11.892,Mental Fatigue Training Session,2020.2.4,MacIntel,60,,,,,,,,,,,,,,,,,,,,,d,,,,,,,,,,,,,,,,,,,,,,,,,,,,,,,,,,,,,,,,,,,,,,,,,,,,,,,,k,0,2.348,0,61,61,79,1,39_50_R.jpg,50,,
1957.909,,,,,,,,JR,2024-01-21_16h18.11.892,Mental Fatigue Training Session,2020.2.4,MacIntel,60,,,,,,,,,,,,,,,,,,,,,d,,,,,,,,,,,,,,,,,,,,,,,,,,,,,,,,,,,,,,,,,,,,,,,,,,,,,,,,d,1,1.591,0,62,62,73,1,39_0_R.jpg,0,,
1963.37,,,,,,,,JR,2024-01-21_16h18.11.892,Mental Fatigue Training Session,2020.2.4,MacIntel,60,,,,,,,,,,,,,,,,,,,,,,,,,,,,,,,,,,,,,,,,,,,,,,,,,,,,,,,,,,,,,,,,,,,,,,,,,,,,,,,,,,,,,,,space,2.811
