elapsed.time,key_resp.keys,key_resp.rt,instrLoop.thisRepN,instrLoop.thisTrialN,instrLoop.thisN,instrLoop.thisIndex,instrLoop.ran,participant,date,expName,psychopyVersion,OS,frameRate,key_resp_2.keys,key_resp_2.rt,instrAXCPTLoop.thisRepN,instrAXCPTLoop.thisTrialN,instrAXCPTLoop.thisN,instrAXCPTLoop.thisIndex,instrAXCPTLoop.ran,AXCPT_resp.keys,AXCPT_resp.corr,AXCPT_resp.rt,AXCPTtrialsLoop.thisRepN,AXCPTtrialsLoop.thisTrialN,AXCPTtrialsLoop.thisN,AXCPTtrialsLoop.thisIndex,AXCPTtrialsLoop.ran,trialNumber,trial,cueType,probeType,trialType,corrResponse,break1.duration,restBreak1_key_resp.keys,restBreak1_key_resp.rt,key_resp_3.keys,key_resp_3.rt,instrNBackLoop.thisRepN,instrNBackLoop.thisTrialN,instrNBackLoop.thisN,instrNBackLoop.thisIndex,instrNBackLoop.ran,NBack_resp_1.keys,NBackTargetLoop.thisRepN,NBackTargetLoop.thisTrialN,NBackTargetLoop.thisN,NBackTargetLoop.thisIndex,NBackTargetLoop.ran,NBack_resp_2.keys,NBack_resp_2.corr,NBack_resp_2.rt,NBackTrialsLoop.thisRepN,NBackTrialsLoop.thisTrialN,NBackTrialsLoop.thisN,NBackTrialsLoop.thisIndex,NBackTrialsLoop.ran,break2.duration,restBreak2_key_resp.keys,restBreak2_key_resp.rt,key_resp_4.keys,key_resp_4.rt,instrSearchLoop.thisRepN,instrSearchLoop.thisTrialN,instrSearchLoop.thisN,instrSearchLoop.thisIndex,instrSearchLoop.ran,key_resp_6.keys,key_resp_6.corr,key_resp_6.rt,searchLoop.thisRepN,searchLoop.thisTrialN,searchLoop.thisN,searchLoop.thisIndex,searchLoop.ran,cond,targetLetter,break3.duration,restBreak3_key_resp.keys,restBreak3_key_resp.rt,key_resp_5.keys,key_resp_5.rt,instrMentRotaLoop.thisRepN,instrMentRotaLoop.thisTrialN,instrMentRotaLoop.thisN,instrMentRotaLoop.thisIndex,instrMentRotaLoop.ran,MROT_resp.keys,MROT_resp.corr,MROT_resp.rt,mentRotTrialsLooop.thisRepN,mentRotTrialsLooop.thisTrialN,mentRotTrialsLooop.thisN,mentRotTrialsLooop.thisIndex,mentRotTrialsLooop.ran,imagefile,orientation,end_resp.keys,end_resp.rt
17.088,right,16.971,0,0,0,0,1,Leah Curtis,2024-01-24_16h43.57.575,Mental Fatigue Training Session,2020.2.4,MacIntel,60,,,,,,,,,,,,,,,,,,,,,,,,,,,,,,,,,,,,,,,,,,,,,,,,,,,,,,,,,,,,,,,,,,,,,,,,,,,,,,,,,,,,,,,
41.038,right,23.911,1,0,1,0,1,Leah Curtis,2024-01-24_16h43.57.575,Mental Fatigue Training Session,2020.2.4,MacIntel,60,,,,,,,,,,,,,,,,,,,,,,,,,,,,,,,,,,,,,,,,,,,,,,,,,,,,,,,,,,,,,,,,,,,,,,,,,,,,,,,,,,,,,,,
52.804,right,11.741,2,0,2,0,1,Leah Curtis,2024-01-24_16h43.57.575,Mental Fatigue Training Session,2020.2.4,MacIntel,60,,,,,,,,,,,,,,,,,,,,,,,,,,,,,,,,,,,,,,,,,,,,,,,,,,,,,,,,,,,,,,,,,,,,,,,,,,,,,,,,,,,,,,,
82.188,,,,,,,,Leah Curtis,2024-01-24_16h43.57.575,Mental Fatigue Training Session,2020.2.4,MacIntel,60,right,29.35,0,0,0,0,1,,,,,,,,,,,,,,,,,,,,,,,,,,,,,,,,,,,,,,,,,,,,,,,,,,,,,,,,,,,,,,,,,,,,,,,,,,,,,,,,
124.82,,,,,,,,Leah Curtis,2024-01-24_16h43.57.575,Mental Fatigue Training Session,2020.2.4,MacIntel,60,right,42.598,1,0,1,0,1,,,,,,,,,,,,,,,,,,,,,,,,,,,,,,,,,,,,,,,,,,,,,,,,,,,,,,,,,,,,,,,,,,,,,,,,,,,,,,,,
139.287,,,,,,,,Leah Curtis,2024-01-24_16h43.57.575,Mental Fatigue Training Session,2020.2.4,MacIntel,60,k,14.433,2,0,2,0,1,,,,,,,,,,,,,,,,,,,,,,,,,,,,,,,,,,,,,,,,,,,,,,,,,,,,,,,,,,,,,,,,,,,,,,,,,,,,,,,,
140.504,,,,,,,,Leah Curtis,2024-01-24_16h43.57.575,Mental Fatigue Training Session,2020.2.4,MacIntel,60,,,,,,,,d,1,0.715,0,0,0,9,1,10,BY,B,Y,bothWrong,d,,,,,,,,,,,,,,,,,,,,,,,,,,,,,,,,,,,,,,,,,,,,,,,,,,,,,,,,,,,,,,,,,,
147.937,,,,,,,,Leah Curtis,2024-01-24_16h43.57.575,Mental Fatigue Training Session,2020.2.4,MacIntel,60,,,,,,,,k,1,0.48,0,1,1,2,1,3,AX,A,X,target,k,,,,,,,,,,,,,,,,,,,,,,,,,,,,,,,,,,,,,,,,,,,,,,,,,,,,,,,,,,,,,,,,,,
155.136,,,,,,,,Leah Curtis,2024-01-24_16h43.57.575,Mental Fatigue Training Session,2020.2.4,MacIntel,60,,,,,,,,k,1,0.468,0,2,2,5,1,6,AX,A,X,target,k,,,,,,,,,,,,,,,,,,,,,,,,,,,,,,,,,,,,,,,,,,,,,,,,,,,,,,,,,,,,,,,,,,
162.32,,,,,,,,Leah Curtis,2024-01-24_16h43.57.575,Mental Fatigue Training Session,2020.2.4,MacIntel,60,,,,,,,,k,1,0.517,0,3,3,4,1,5,AX,A,X,target,k,,,,,,,,,,,,,,,,,,,,,,,,,,,,,,,,,,,,,,,,,,,,,,,,,,,,,,,,,,,,,,,,,,
169.554,,,,,,,,Leah Curtis,2024-01-24_16h43.57.575,Mental Fatigue Training Session,2020.2.4,MacIntel,60,,,,,,,,k,1,0.521,0,4,4,3,1,4,AX,A,X,target,k,,,,,,,,,,,,,,,,,,,,,,,,,,,,,,,,,,,,,,,,,,,,,,,,,,,,,,,,,,,,,,,,,,
176.786,,,,,,,,Leah Curtis,2024-01-24_16h43.57.575,Mental Fatigue Training Session,2020.2.4,MacIntel,60,,,,,,,,k,1,0.586,0,5,5,1,1,2,AX,A,X,target,k,,,,,,,,,,,,,,,,,,,,,,,,,,,,,,,,,,,,,,,,,,,,,,,,,,,,,,,,,,,,,,,,,,
184.087,,,,,,,,Leah Curtis,2024-01-24_16h43.57.575,Mental Fatigue Training Session,2020.2.4,MacIntel,60,,,,,,,,d,1,0.315,0,6,6,8,1,9,AY,A,Y,cueWrong,d,,,,,,,,,,,,,,,,,,,,,,,,,,,,,,,,,,,,,,,,,,,,,,,,,,,,,,,,,,,,,,,,,,
191.12,,,,,,,,Leah Curtis,2024-01-24_16h43.57.575,Mental Fatigue Training Session,2020.2.4,MacIntel,60,,,,,,,,k,1,0.366,0,7,7,0,1,1,AX,A,X,target,k,,,,,,,,,,,,,,,,,,,,,,,,,,,,,,,,,,,,,,,,,,,,,,,,,,,,,,,,,,,,,,,,,,
198.203,,,,,,,,Leah Curtis,2024-01-24_16h43.57.575,Mental Fatigue Training Session,2020.2.4,MacIntel,60,,,,,,,,k,1,0.403,0,8,8,6,1,7,AX,A,X,target,k,,,,,,,,,,,,,,,,,,,,,,,,,,,,,,,,,,,,,,,,,,,,,,,,,,,,,,,,,,,,,,,,,,
205.319,,,,,,,,Leah Curtis,2024-01-24_16h43.57.575,Mental Fatigue Training Session,2020.2.4,MacIntel,60,,,,,,,,d,1,0.585,0,9,9,7,1,8,BX,B,X,probeWrong,d,,,,,,,,,,,,,,,,,,,,,,,,,,,,,,,,,,,,,,,,,,,,,,,,,,,,,,,,,,,,,,,,,,
212.619,,,,,,,,Leah Curtis,2024-01-24_16h43.57.575,Mental Fatigue Training Session,2020.2.4,MacIntel,60,,,,,,,,k,1,0.533,1,0,10,5,1,6,AX,A,X,target,k,,,,,,,,,,,,,,,,,,,,,,,,,,,,,,,,,,,,,,,,,,,,,,,,,,,,,,,,,,,,,,,,,,
219.869,,,,,,,,Leah Curtis,2024-01-24_16h43.57.575,Mental Fatigue Training Session,2020.2.4,MacIntel,60,,,,,,,,k,1,0.418,1,1,11,1,1,2,AX,A,X,target,k,,,,,,,,,,,,,,,,,,,,,,,,,,,,,,,,,,,,,,,,,,,,,,,,,,,,,,,,,,,,,,,,,,
227.003,,,,,,,,Leah Curtis,2024-01-24_16h43.57.575,Mental Fatigue Training Session,2020.2.4,MacIntel,60,,,,,,,,d,1,0.596,1,2,12,7,1,8,BX,B,X,probeWrong,d,,,,,,,,,,,,,,,,,,,,,,,,,,,,,,,,,,,,,,,,,,,,,,,,,,,,,,,,,,,,,,,,,,
234.319,,,,,,,,Leah Curtis,2024-01-24_16h43.57.575,Mental Fatigue Training Session,2020.2.4,MacIntel,60,,,,,,,,k,1,0.43,1,3,13,4,1,5,AX,A,X,target,k,,,,,,,,,,,,,,,,,,,,,,,,,,,,,,,,,,,,,,,,,,,,,,,,,,,,,,,,,,,,,,,,,,
241.469,,,,,,,,Leah Curtis,2024-01-24_16h43.57.575,Mental Fatigue Training Session,2020.2.4,MacIntel,60,,,,,,,,k,1,0.403,1,4,14,6,1,7,AX,A,X,target,k,,,,,,,,,,,,,,,,,,,,,,,,,,,,,,,,,,,,,,,,,,,,,,,,,,,,,,,,,,,,,,,,,,
248.586,,,,,,,,Leah Curtis,2024-01-24_16h43.57.575,Mental Fatigue Training Session,2020.2.4,MacIntel,60,,,,,,,,k,1,0.517,1,5,15,0,1,1,AX,A,X,target,k,,,,,,,,,,,,,,,,,,,,,,,,,,,,,,,,,,,,,,,,,,,,,,,,,,,,,,,,,,,,,,,,,,
255.819,,,,,,,,Leah Curtis,2024-01-24_16h43.57.575,Mental Fatigue Training Session,2020.2.4,MacIntel,60,,,,,,,,k,1,0.389,1,6,16,2,1,3,AX,A,X,target,k,,,,,,,,,,,,,,,,,,,,,,,,,,,,,,,,,,,,,,,,,,,,,,,,,,,,,,,,,,,,,,,,,,
262.918,,,,,,,,Leah Curtis,2024-01-24_16h43.57.575,Mental Fatigue Training Session,2020.2.4,MacIntel,60,,,,,,,,d,1,0.281,1,7,17,9,1,10,BY,B,Y,bothWrong,d,,,,,,,,,,,,,,,,,,,,,,,,,,,,,,,,,,,,,,,,,,,,,,,,,,,,,,,,,,,,,,,,,,
269.918,,,,,,,,Leah Curtis,2024-01-24_16h43.57.575,Mental Fatigue Training Session,2020.2.4,MacIntel,60,,,,,,,,k,1,0.548,1,8,18,3,1,4,AX,A,X,target,k,,,,,,,,,,,,,,,,,,,,,,,,,,,,,,,,,,,,,,,,,,,,,,,,,,,,,,,,,,,,,,,,,,
277.185,,,,,,,,Leah Curtis,2024-01-24_16h43.57.575,Mental Fatigue Training Session,2020.2.4,MacIntel,60,,,,,,,,d,1,0.767,1,9,19,8,1,9,AY,A,Y,cueWrong,d,,,,,,,,,,,,,,,,,,,,,,,,,,,,,,,,,,,,,,,,,,,,,,,,,,,,,,,,,,,,,,,,,,
284.669,,,,,,,,Leah Curtis,2024-01-24_16h43.57.575,Mental Fatigue Training Session,2020.2.4,MacIntel,60,,,,,,,,d,1,0.271,2,0,20,9,1,10,BY,B,Y,bothWrong,d,,,,,,,,,,,,,,,,,,,,,,,,,,,,,,,,,,,,,,,,,,,,,,,,,,,,,,,,,,,,,,,,,,
291.651,,,,,,,,Leah Curtis,2024-01-24_16h43.57.575,Mental Fatigue Training Session,2020.2.4,MacIntel,60,,,,,,,,k,1,0.447,2,1,21,2,1,3,AX,A,X,target,k,,,,,,,,,,,,,,,,,,,,,,,,,,,,,,,,,,,,,,,,,,,,,,,,,,,,,,,,,,,,,,,,,,
298.818,,,,,,,,Leah Curtis,2024-01-24_16h43.57.575,Mental Fatigue Training Session,2020.2.4,MacIntel,60,,,,,,,,d,1,0.302,2,2,22,8,1,9,AY,A,Y,cueWrong,d,,,,,,,,,,,,,,,,,,,,,,,,,,,,,,,,,,,,,,,,,,,,,,,,,,,,,,,,,,,,,,,,,,
305.834,,,,,,,,Leah Curtis,2024-01-24_16h43.57.575,Mental Fatigue Training Session,2020.2.4,MacIntel,60,,,,,,,,k,1,0.336,2,3,23,0,1,1,AX,A,X,target,k,,,,,,,,,,,,,,,,,,,,,,,,,,,,,,,,,,,,,,,,,,,,,,,,,,,,,,,,,,,,,,,,,,
312.885,,,,,,,,Leah Curtis,2024-01-24_16h43.57.575,Mental Fatigue Training Session,2020.2.4,MacIntel,60,,,,,,,,k,1,0.435,2,4,24,5,1,6,AX,A,X,target,k,,,,,,,,,,,,,,,,,,,,,,,,,,,,,,,,,,,,,,,,,,,,,,,,,,,,,,,,,,,,,,,,,,
320.035,,,,,,,,Leah Curtis,2024-01-24_16h43.57.575,Mental Fatigue Training Session,2020.2.4,MacIntel,60,,,,,,,,k,1,0.452,2,5,25,4,1,5,AX,A,X,target,k,,,,,,,,,,,,,,,,,,,,,,,,,,,,,,,,,,,,,,,,,,,,,,,,,,,,,,,,,,,,,,,,,,
327.201,,,,,,,,Leah Curtis,2024-01-24_16h43.57.575,Mental Fatigue Training Session,2020.2.4,MacIntel,60,,,,,,,,k,1,0.37,2,6,26,1,1,2,AX,A,X,target,k,,,,,,,,,,,,,,,,,,,,,,,,,,,,,,,,,,,,,,,,,,,,,,,,,,,,,,,,,,,,,,,,,,
334.285,,,,,,,,Leah Curtis,2024-01-24_16h43.57.575,Mental Fatigue Training Session,2020.2.4,MacIntel,60,,,,,,,,d,1,0.598,2,7,27,7,1,8,BX,B,X,probeWrong,d,,,,,,,,,,,,,,,,,,,,,,,,,,,,,,,,,,,,,,,,,,,,,,,,,,,,,,,,,,,,,,,,,,
341.6,,,,,,,,Leah Curtis,2024-01-24_16h43.57.575,Mental Fatigue Training Session,2020.2.4,MacIntel,60,,,,,,,,k,1,0.4,2,8,28,3,1,4,AX,A,X,target,k,,,,,,,,,,,,,,,,,,,,,,,,,,,,,,,,,,,,,,,,,,,,,,,,,,,,,,,,,,,,,,,,,,
348.717,,,,,,,,Leah Curtis,2024-01-24_16h43.57.575,Mental Fatigue Training Session,2020.2.4,MacIntel,60,,,,,,,,k,1,0.467,2,9,29,6,1,7,AX,A,X,target,k,,,,,,,,,,,,,,,,,,,,,,,,,,,,,,,,,,,,,,,,,,,,,,,,,,,,,,,,,,,,,,,,,,
355.901,,,,,,,,Leah Curtis,2024-01-24_16h43.57.575,Mental Fatigue Training Session,2020.2.4,MacIntel,60,,,,,,,,k,1,0.39,3,0,30,1,1,2,AX,A,X,target,k,,,,,,,,,,,,,,,,,,,,,,,,,,,,,,,,,,,,,,,,,,,,,,,,,,,,,,,,,,,,,,,,,,
363,,,,,,,,Leah Curtis,2024-01-24_16h43.57.575,Mental Fatigue Training Session,2020.2.4,MacIntel,60,,,,,,,,d,1,0.275,3,1,31,8,1,9,AY,A,Y,cueWrong,d,,,,,,,,,,,,,,,,,,,,,,,,,,,,,,,,,,,,,,,,,,,,,,,,,,,,,,,,,,,,,,,,,,
369.983,,,,,,,,Leah Curtis,2024-01-24_16h43.57.575,Mental Fatigue Training Session,2020.2.4,MacIntel,60,,,,,,,,k,1,0.338,3,2,32,5,1,6,AX,A,X,target,k,,,,,,,,,,,,,,,,,,,,,,,,,,,,,,,,,,,,,,,,,,,,,,,,,,,,,,,,,,,,,,,,,,
377.034,,,,,,,,Leah Curtis,2024-01-24_16h43.57.575,Mental Fatigue Training Session,2020.2.4,MacIntel,60,,,,,,,,k,1,0.521,3,3,33,3,1,4,AX,A,X,target,k,,,,,,,,,,,,,,,,,,,,,,,,,,,,,,,,,,,,,,,,,,,,,,,,,,,,,,,,,,,,,,,,,,
384.267,,,,,,,,Leah Curtis,2024-01-24_16h43.57.575,Mental Fatigue Training Session,2020.2.4,MacIntel,60,,,,,,,,d,1,0.683,3,4,34,7,1,8,BX,B,X,probeWrong,d,,,,,,,,,,,,,,,,,,,,,,,,,,,,,,,,,,,,,,,,,,,,,,,,,,,,,,,,,,,,,,,,,,
391.667,,,,,,,,Leah Curtis,2024-01-24_16h43.57.575,Mental Fatigue Training Session,2020.2.4,MacIntel,60,,,,,,,,k,1,0.549,3,5,35,4,1,5,AX,A,X,target,k,,,,,,,,,,,,,,,,,,,,,,,,,,,,,,,,,,,,,,,,,,,,,,,,,,,,,,,,,,,,,,,,,,
398.933,,,,,,,,Leah Curtis,2024-01-24_16h43.57.575,Mental Fatigue Training Session,2020.2.4,MacIntel,60,,,,,,,,k,1,0.368,3,6,36,6,1,7,AX,A,X,target,k,,,,,,,,,,,,,,,,,,,,,,,,,,,,,,,,,,,,,,,,,,,,,,,,,,,,,,,,,,,,,,,,,,
406.017,,,,,,,,Leah Curtis,2024-01-24_16h43.57.575,Mental Fatigue Training Session,2020.2.4,MacIntel,60,,,,,,,,d,1,0.098,3,7,37,9,1,10,BY,B,Y,bothWrong,d,,,,,,,,,,,,,,,,,,,,,,,,,,,,,,,,,,,,,,,,,,,,,,,,,,,,,,,,,,,,,,,,,,
412.833,,,,,,,,Leah Curtis,2024-01-24_16h43.57.575,Mental Fatigue Training Session,2020.2.4,MacIntel,60,,,,,,,,k,1,0.37,3,8,38,2,1,3,AX,A,X,target,k,,,,,,,,,,,,,,,,,,,,,,,,,,,,,,,,,,,,,,,,,,,,,,,,,,,,,,,,,,,,,,,,,,
419.917,,,,,,,,Leah Curtis,2024-01-24_16h43.57.575,Mental Fatigue Training Session,2020.2.4,MacIntel,60,,,,,,,,k,1,0.434,3,9,39,0,1,1,AX,A,X,target,k,,,,,,,,,,,,,,,,,,,,,,,,,,,,,,,,,,,,,,,,,,,,,,,,,,,,,,,,,,,,,,,,,,
427.067,,,,,,,,Leah Curtis,2024-01-24_16h43.57.575,Mental Fatigue Training Session,2020.2.4,MacIntel,60,,,,,,,,k,1,0.388,4,0,40,5,1,6,AX,A,X,target,k,,,,,,,,,,,,,,,,,,,,,,,,,,,,,,,,,,,,,,,,,,,,,,,,,,,,,,,,,,,,,,,,,,
434.166,,,,,,,,Leah Curtis,2024-01-24_16h43.57.575,Mental Fatigue Training Session,2020.2.4,MacIntel,60,,,,,,,,k,1,0.384,4,1,41,3,1,4,AX,A,X,target,k,,,,,,,,,,,,,,,,,,,,,,,,,,,,,,,,,,,,,,,,,,,,,,,,,,,,,,,,,,,,,,,,,,
441.266,,,,,,,,Leah Curtis,2024-01-24_16h43.57.575,Mental Fatigue Training Session,2020.2.4,MacIntel,60,,,,,,,,k,1,0.404,4,2,42,1,1,2,AX,A,X,target,k,,,,,,,,,,,,,,,,,,,,,,,,,,,,,,,,,,,,,,,,,,,,,,,,,,,,,,,,,,,,,,,,,,
502.265,,,,,,,,Leah Curtis,2024-01-24_16h43.57.575,Mental Fatigue Training Session,2020.2.4,MacIntel,60,,,,,,,,,,,,,,,,,,,,,,36.133,right,36.103,right,18.912,0,0,0,0,1,,,,,,,,,,,,,,,,,,,,,,,,,,,,,,,,,,,,,,,,,,,,,,,,,,,,,,,,
518.565,,,,,,,,Leah Curtis,2024-01-24_16h43.57.575,Mental Fatigue Training Session,2020.2.4,MacIntel,60,,,,,,,,,,,,,,,,,,,,,,,,,left,16.272,1,0,1,0,1,,,,,,,,,,,,,,,,,,,,,,,,,,,,,,,,,,,,,,,,,,,,,,,,,,,,,,,,
533.265,,,,,,,,Leah Curtis,2024-01-24_16h43.57.575,Mental Fatigue Training Session,2020.2.4,MacIntel,60,,,,,,,,,,,,,,,,,,,,,,,,,right,14.679,2,0,2,0,1,,,,,,,,,,,,,,,,,,,,,,,,,,,,,,,,,,,,,,,,,,,,,,,,,,,,,,,,
548.814,,,,,,,,Leah Curtis,2024-01-24_16h43.57.575,Mental Fatigue Training Session,2020.2.4,MacIntel,60,,,,,,,,,,,,,,,,,,,,,,,,,right,15.524,3,0,3,0,1,,,,,,,,,,,,,,,,,,,,,,,,,,,,,,,,,,,,,,,,,,,,,,,,,,,,,,,,
566.614,,,,,,,,Leah Curtis,2024-01-24_16h43.57.575,Mental Fatigue Training Session,2020.2.4,MacIntel,60,,,,,,,,,,,,,,,,,,,,,,,,,k,17.766,4,0,4,0,1,,,,,,,,,,,,,,,,,,,,,,,,,,,,,,,,,,,,,,,,,,,,,,,,,,,,,,,,
567.815,,,,,,,,Leah Curtis,2024-01-24_16h43.57.575,Mental Fatigue Training Session,2020.2.4,MacIntel,60,,,,,,,,,,,,,,,,,,,,,,,,,,,,,,,,,0,0,0,0,1,,,,,,,,,,,,,,,,,,,,,,,,,,,,,,,,,,,,,,,,,,,,,,,,,,
571.014,,,,,,,,Leah Curtis,2024-01-24_16h43.57.575,Mental Fatigue Training Session,2020.2.4,MacIntel,60,,,,,,,,,,,,,,,,,,,,,,,,,,,,,,,,,1,0,1,0,1,,,,,,,,,,,,,,,,,,,,,,,,,,,,,,,,,,,,,,,,,,,,,,,,,,
574.214,,,,,,,,Leah Curtis,2024-01-24_16h43.57.575,Mental Fatigue Training Session,2020.2.4,MacIntel,60,,,,,,,,,,,,,,,,,,,,,,,,,,,,,,,,,2,0,2,0,1,,,,,,,,,,,,,,,,,,,,,,,,,,,,,,,,,,,,,,,,,,,,,,,,,,
577.431,,,,,,,,Leah Curtis,2024-01-24_16h43.57.575,Mental Fatigue Training Session,2020.2.4,MacIntel,60,,,,,,,,,,,,,,,,,10,,,nonTarget,d,,,,,,,,,,,,,,,,,d,1,0.622,0,0,0,9,1,,,,,,,,,,,,,,,,,,,,,,,,,,,,,,,,,,,,,,,,,,
580.265,,,,,,,,Leah Curtis,2024-01-24_16h43.57.575,Mental Fatigue Training Session,2020.2.4,MacIntel,60,,,,,,,,,,,,,,,,,3,,,target,k,,,,,,,,,,,,,,,,,,0,,0,1,1,2,1,,,,,,,,,,,,,,,,,,,,,,,,,,,,,,,,,,,,,,,,,,
584.465,,,,,,,,Leah Curtis,2024-01-24_16h43.57.575,Mental Fatigue Training Session,2020.2.4,MacIntel,60,,,,,,,,,,,,,,,,,2,,,target,k,,,,,,,,,,,,,,,,,d,0,1.315,0,2,2,1,1,,,,,,,,,,,,,,,,,,,,,,,,,,,,,,,,,,,,,,,,,,
587.997,,,,,,,,Leah Curtis,2024-01-24_16h43.57.575,Mental Fatigue Training Session,2020.2.4,MacIntel,60,,,,,,,,,,,,,,,,,5,,,nonTarget,d,,,,,,,,,,,,,,,,,d,1,0.604,0,3,3,4,1,,,,,,,,,,,,,,,,,,,,,,,,,,,,,,,,,,,,,,,,,,
590.814,,,,,,,,Leah Curtis,2024-01-24_16h43.57.575,Mental Fatigue Training Session,2020.2.4,MacIntel,60,,,,,,,,,,,,,,,,,6,,,nonTarget,d,,,,,,,,,,,,,,,,,d,1,0.382,0,4,4,5,1,,,,,,,,,,,,,,,,,,,,,,,,,,,,,,,,,,,,,,,,,,
593.414,,,,,,,,Leah Curtis,2024-01-24_16h43.57.575,Mental Fatigue Training Session,2020.2.4,MacIntel,60,,,,,,,,,,,,,,,,,4,,,nonTarget,d,,,,,,,,,,,,,,,,,d,1,0.47,0,5,5,3,1,,,,,,,,,,,,,,,,,,,,,,,,,,,,,,,,,,,,,,,,,,
596.098,,,,,,,,Leah Curtis,2024-01-24_16h43.57.575,Mental Fatigue Training Session,2020.2.4,MacIntel,60,,,,,,,,,,,,,,,,,9,,,nonTarget,d,,,,,,,,,,,,,,,,,d,1,0.513,0,6,6,8,1,,,,,,,,,,,,,,,,,,,,,,,,,,,,,,,,,,,,,,,,,,
598.831,,,,,,,,Leah Curtis,2024-01-24_16h43.57.575,Mental Fatigue Training Session,2020.2.4,MacIntel,60,,,,,,,,,,,,,,,,,7,,,nonTarget,d,,,,,,,,,,,,,,,,,k,0,0.591,0,7,7,6,1,,,,,,,,,,,,,,,,,,,,,,,,,,,,,,,,,,,,,,,,,,
601.631,,,,,,,,Leah Curtis,2024-01-24_16h43.57.575,Mental Fatigue Training Session,2020.2.4,MacIntel,60,,,,,,,,,,,,,,,,,1,,,target,k,,,,,,,,,,,,,,,,,d,0,0.467,0,8,8,0,1,,,,,,,,,,,,,,,,,,,,,,,,,,,,,,,,,,,,,,,,,,
604.313,,,,,,,,Leah Curtis,2024-01-24_16h43.57.575,Mental Fatigue Training Session,2020.2.4,MacIntel,60,,,,,,,,,,,,,,,,,8,,,nonTarget,d,,,,,,,,,,,,,,,,,d,1,1.129,0,9,9,7,1,,,,,,,,,,,,,,,,,,,,,,,,,,,,,,,,,,,,,,,,,,
607.664,,,,,,,,Leah Curtis,2024-01-24_16h43.57.575,Mental Fatigue Training Session,2020.2.4,MacIntel,60,,,,,,,,,,,,,,,,,9,,,nonTarget,d,,,,,,,,,,,,,,,,,d,1,1.129,1,0,10,8,1,,,,,,,,,,,,,,,,,,,,,,,,,,,,,,,,,,,,,,,,,,
611.013,,,,,,,,Leah Curtis,2024-01-24_16h43.57.575,Mental Fatigue Training Session,2020.2.4,MacIntel,60,,,,,,,,,,,,,,,,,10,,,nonTarget,d,,,,,,,,,,,,,,,,,d,1,0.782,1,1,11,9,1,,,,,,,,,,,,,,,,,,,,,,,,,,,,,,,,,,,,,,,,,,
614.014,,,,,,,,Leah Curtis,2024-01-24_16h43.57.575,Mental Fatigue Training Session,2020.2.4,MacIntel,60,,,,,,,,,,,,,,,,,8,,,nonTarget,d,,,,,,,,,,,,,,,,,d,1,0.556,1,2,12,7,1,,,,,,,,,,,,,,,,,,,,,,,,,,,,,,,,,,,,,,,,,,
616.781,,,,,,,,Leah Curtis,2024-01-24_16h43.57.575,Mental Fatigue Training Session,2020.2.4,MacIntel,60,,,,,,,,,,,,,,,,,5,,,nonTarget,d,,,,,,,,,,,,,,,,,d,1,0.481,1,3,13,4,1,,,,,,,,,,,,,,,,,,,,,,,,,,,,,,,,,,,,,,,,,,
619.481,,,,,,,,Leah Curtis,2024-01-24_16h43.57.575,Mental Fatigue Training Session,2020.2.4,MacIntel,60,,,,,,,,,,,,,,,,,4,,,nonTarget,d,,,,,,,,,,,,,,,,,d,1,0.434,1,4,14,3,1,,,,,,,,,,,,,,,,,,,,,,,,,,,,,,,,,,,,,,,,,,
622.131,,,,,,,,Leah Curtis,2024-01-24_16h43.57.575,Mental Fatigue Training Session,2020.2.4,MacIntel,60,,,,,,,,,,,,,,,,,6,,,nonTarget,d,,,,,,,,,,,,,,,,,d,1,0.617,1,5,15,5,1,,,,,,,,,,,,,,,,,,,,,,,,,,,,,,,,,,,,,,,,,,
624.964,,,,,,,,Leah Curtis,2024-01-24_16h43.57.575,Mental Fatigue Training Session,2020.2.4,MacIntel,60,,,,,,,,,,,,,,,,,3,,,target,k,,,,,,,,,,,,,,,,,d,0,0.387,1,6,16,2,1,,,,,,,,,,,,,,,,,,,,,,,,,,,,,,,,,,,,,,,,,,
627.564,,,,,,,,Leah Curtis,2024-01-24_16h43.57.575,Mental Fatigue Training Session,2020.2.4,MacIntel,60,,,,,,,,,,,,,,,,,7,,,nonTarget,d,,,,,,,,,,,,,,,,,d,1,0.814,1,7,17,6,1,,,,,,,,,,,,,,,,,,,,,,,,,,,,,,,,,,,,,,,,,,
630.596,,,,,,,,Leah Curtis,2024-01-24_16h43.57.575,Mental Fatigue Training Session,2020.2.4,MacIntel,60,,,,,,,,,,,,,,,,,2,,,target,k,,,,,,,,,,,,,,,,,d,0,0.547,1,8,18,1,1,,,,,,,,,,,,,,,,,,,,,,,,,,,,,,,,,,,,,,,,,,
633.364,,,,,,,,Leah Curtis,2024-01-24_16h43.57.575,Mental Fatigue Training Session,2020.2.4,MacIntel,60,,,,,,,,,,,,,,,,,1,,,target,k,,,,,,,,,,,,,,,,,d,0,0.555,1,9,19,0,1,,,,,,,,,,,,,,,,,,,,,,,,,,,,,,,,,,,,,,,,,,
636.13,,,,,,,,Leah Curtis,2024-01-24_16h43.57.575,Mental Fatigue Training Session,2020.2.4,MacIntel,60,,,,,,,,,,,,,,,,,8,,,nonTarget,d,,,,,,,,,,,,,,,,,k,0,0.551,2,0,20,7,1,,,,,,,,,,,,,,,,,,,,,,,,,,,,,,,,,,,,,,,,,,
638.897,,,,,,,,Leah Curtis,2024-01-24_16h43.57.575,Mental Fatigue Training Session,2020.2.4,MacIntel,60,,,,,,,,,,,,,,,,,9,,,nonTarget,d,,,,,,,,,,,,,,,,,d,1,0.337,2,1,21,8,1,,,,,,,,,,,,,,,,,,,,,,,,,,,,,,,,,,,,,,,,,,
641.447,,,,,,,,Leah Curtis,2024-01-24_16h43.57.575,Mental Fatigue Training Session,2020.2.4,MacIntel,60,,,,,,,,,,,,,,,,,3,,,target,k,,,,,,,,,,,,,,,,,d,0,0.323,2,2,22,2,1,,,,,,,,,,,,,,,,,,,,,,,,,,,,,,,,,,,,,,,,,,
643.981,,,,,,,,Leah Curtis,2024-01-24_16h43.57.575,Mental Fatigue Training Session,2020.2.4,MacIntel,60,,,,,,,,,,,,,,,,,7,,,nonTarget,d,,,,,,,,,,,,,,,,,d,1,0.381,2,3,23,6,1,,,,,,,,,,,,,,,,,,,,,,,,,,,,,,,,,,,,,,,,,,
646.579,,,,,,,,Leah Curtis,2024-01-24_16h43.57.575,Mental Fatigue Training Session,2020.2.4,MacIntel,60,,,,,,,,,,,,,,,,,5,,,nonTarget,d,,,,,,,,,,,,,,,,,d,1,0.347,2,4,24,4,1,,,,,,,,,,,,,,,,,,,,,,,,,,,,,,,,,,,,,,,,,,
649.147,,,,,,,,Leah Curtis,2024-01-24_16h43.57.575,Mental Fatigue Training Session,2020.2.4,MacIntel,60,,,,,,,,,,,,,,,,,1,,,target,k,,,,,,,,,,,,,,,,,d,0,0.455,2,5,25,0,1,,,,,,,,,,,,,,,,,,,,,,,,,,,,,,,,,,,,,,,,,,
651.813,,,,,,,,Leah Curtis,2024-01-24_16h43.57.575,Mental Fatigue Training Session,2020.2.4,MacIntel,60,,,,,,,,,,,,,,,,,2,,,target,k,,,,,,,,,,,,,,,,,d,0,0.486,2,6,26,1,1,,,,,,,,,,,,,,,,,,,,,,,,,,,,,,,,,,,,,,,,,,
654.514,,,,,,,,Leah Curtis,2024-01-24_16h43.57.575,Mental Fatigue Training Session,2020.2.4,MacIntel,60,,,,,,,,,,,,,,,,,6,,,nonTarget,d,,,,,,,,,,,,,,,,,k,0,0.531,2,7,27,5,1,,,,,,,,,,,,,,,,,,,,,,,,,,,,,,,,,,,,,,,,,,
657.264,,,,,,,,Leah Curtis,2024-01-24_16h43.57.575,Mental Fatigue Training Session,2020.2.4,MacIntel,60,,,,,,,,,,,,,,,,,4,,,nonTarget,d,,,,,,,,,,,,,,,,,d,1,0.316,2,8,28,3,1,,,,,,,,,,,,,,,,,,,,,,,,,,,,,,,,,,,,,,,,,,
659.797,,,,,,,,Leah Curtis,2024-01-24_16h43.57.575,Mental Fatigue Training Session,2020.2.4,MacIntel,60,,,,,,,,,,,,,,,,,10,,,nonTarget,d,,,,,,,,,,,,,,,,,d,1,0.315,2,9,29,9,1,,,,,,,,,,,,,,,,,,,,,,,,,,,,,,,,,,,,,,,,,,
662.33,,,,,,,,Leah Curtis,2024-01-24_16h43.57.575,Mental Fatigue Training Session,2020.2.4,MacIntel,60,,,,,,,,,,,,,,,,,2,,,target,k,,,,,,,,,,,,,,,,,d,0,0.4,3,0,30,1,1,,,,,,,,,,,,,,,,,,,,,,,,,,,,,,,,,,,,,,,,,,
664.946,,,,,,,,Leah Curtis,2024-01-24_16h43.57.575,Mental Fatigue Training Session,2020.2.4,MacIntel,60,,,,,,,,,,,,,,,,,3,,,target,k,,,,,,,,,,,,,,,,,d,0,0.945,3,1,31,2,1,,,,,,,,,,,,,,,,,,,,,,,,,,,,,,,,,,,,,,,,,,
668.113,,,,,,,,Leah Curtis,2024-01-24_16h43.57.575,Mental Fatigue Training Session,2020.2.4,MacIntel,60,,,,,,,,,,,,,,,,,10,,,nonTarget,d,,,,,,,,,,,,,,,,,d,1,0.617,3,2,32,9,1,,,,,,,,,,,,,,,,,,,,,,,,,,,,,,,,,,,,,,,,,,
670.946,,,,,,,,Leah Curtis,2024-01-24_16h43.57.575,Mental Fatigue Training Session,2020.2.4,MacIntel,60,,,,,,,,,,,,,,,,,8,,,nonTarget,d,,,,,,,,,,,,,,,,,d,1,0.45,3,3,33,7,1,,,,,,,,,,,,,,,,,,,,,,,,,,,,,,,,,,,,,,,,,,
673.613,,,,,,,,Leah Curtis,2024-01-24_16h43.57.575,Mental Fatigue Training Session,2020.2.4,MacIntel,60,,,,,,,,,,,,,,,,,1,,,target,k,,,,,,,,,,,,,,,,,d,0,0.407,3,4,34,0,1,,,,,,,,,,,,,,,,,,,,,,,,,,,,,,,,,,,,,,,,,,
676.229,,,,,,,,Leah Curtis,2024-01-24_16h43.57.575,Mental Fatigue Training Session,2020.2.4,MacIntel,60,,,,,,,,,,,,,,,,,7,,,nonTarget,d,,,,,,,,,,,,,,,,,d,1,0.924,3,5,35,6,1,,,,,,,,,,,,,,,,,,,,,,,,,,,,,,,,,,,,,,,,,,
679.363,,,,,,,,Leah Curtis,2024-01-24_16h43.57.575,Mental Fatigue Training Session,2020.2.4,MacIntel,60,,,,,,,,,,,,,,,,,9,,,nonTarget,d,,,,,,,,,,,,,,,,,d,1,0.663,3,6,36,8,1,,,,,,,,,,,,,,,,,,,,,,,,,,,,,,,,,,,,,,,,,,
682.247,,,,,,,,Leah Curtis,2024-01-24_16h43.57.575,Mental Fatigue Training Session,2020.2.4,MacIntel,60,,,,,,,,,,,,,,,,,6,,,nonTarget,d,,,,,,,,,,,,,,,,,d,1,0.647,3,7,37,5,1,,,,,,,,,,,,,,,,,,,,,,,,,,,,,,,,,,,,,,,,,,
685.113,,,,,,,,Leah Curtis,2024-01-24_16h43.57.575,Mental Fatigue Training Session,2020.2.4,MacIntel,60,,,,,,,,,,,,,,,,,4,,,nonTarget,d,,,,,,,,,,,,,,,,,k,0,0.6,3,8,38,3,1,,,,,,,,,,,,,,,,,,,,,,,,,,,,,,,,,,,,,,,,,,
687.929,,,,,,,,Leah Curtis,2024-01-24_16h43.57.575,Mental Fatigue Training Session,2020.2.4,MacIntel,60,,,,,,,,,,,,,,,,,5,,,nonTarget,d,,,,,,,,,,,,,,,,,d,1,0.796,3,9,39,4,1,,,,,,,,,,,,,,,,,,,,,,,,,,,,,,,,,,,,,,,,,,
690.946,,,,,,,,Leah Curtis,2024-01-24_16h43.57.575,Mental Fatigue Training Session,2020.2.4,MacIntel,60,,,,,,,,,,,,,,,,,4,,,nonTarget,d,,,,,,,,,,,,,,,,,d,1,0.521,4,0,40,3,1,,,,,,,,,,,,,,,,,,,,,,,,,,,,,,,,,,,,,,,,,,
693.679,,,,,,,,Leah Curtis,2024-01-24_16h43.57.575,Mental Fatigue Training Session,2020.2.4,MacIntel,60,,,,,,,,,,,,,,,,,10,,,nonTarget,d,,,,,,,,,,,,,,,,,d,1,0.554,4,1,41,9,1,,,,,,,,,,,,,,,,,,,,,,,,,,,,,,,,,,,,,,,,,,
696.447,,,,,,,,Leah Curtis,2024-01-24_16h43.57.575,Mental Fatigue Training Session,2020.2.4,MacIntel,60,,,,,,,,,,,,,,,,,9,,,nonTarget,d,,,,,,,,,,,,,,,,,k,0,0.637,4,2,42,8,1,,,,,,,,,,,,,,,,,,,,,,,,,,,,,,,,,,,,,,,,,,
699.297,,,,,,,,Leah Curtis,2024-01-24_16h43.57.575,Mental Fatigue Training Session,2020.2.4,MacIntel,60,,,,,,,,,,,,,,,,,3,,,target,k,,,,,,,,,,,,,,,,,k,1,0.729,4,3,43,2,1,,,,,,,,,,,,,,,,,,,,,,,,,,,,,,,,,,,,,,,,,,
702.246,,,,,,,,Leah Curtis,2024-01-24_16h43.57.575,Mental Fatigue Training Session,2020.2.4,MacIntel,60,,,,,,,,,,,,,,,,,6,,,nonTarget,d,,,,,,,,,,,,,,,,,k,0,1.114,4,4,44,5,1,,,,,,,,,,,,,,,,,,,,,,,,,,,,,,,,,,,,,,,,,,
705.579,,,,,,,,Leah Curtis,2024-01-24_16h43.57.575,Mental Fatigue Training Session,2020.2.4,MacIntel,60,,,,,,,,,,,,,,,,,2,,,target,k,,,,,,,,,,,,,,,,,d,0,0.747,4,5,45,1,1,,,,,,,,,,,,,,,,,,,,,,,,,,,,,,,,,,,,,,,,,,
708.545,,,,,,,,Leah Curtis,2024-01-24_16h43.57.575,Mental Fatigue Training Session,2020.2.4,MacIntel,60,,,,,,,,,,,,,,,,,8,,,nonTarget,d,,,,,,,,,,,,,,,,,k,0,1.102,4,6,46,7,1,,,,,,,,,,,,,,,,,,,,,,,,,,,,,,,,,,,,,,,,,,
711.862,,,,,,,,Leah Curtis,2024-01-24_16h43.57.575,Mental Fatigue Training Session,2020.2.4,MacIntel,60,,,,,,,,,,,,,,,,,5,,,nonTarget,d,,,,,,,,,,,,,,,,,d,1,0.555,4,7,47,4,1,,,,,,,,,,,,,,,,,,,,,,,,,,,,,,,,,,,,,,,,,,
714.629,,,,,,,,Leah Curtis,2024-01-24_16h43.57.575,Mental Fatigue Training Session,2020.2.4,MacIntel,60,,,,,,,,,,,,,,,,,1,,,target,k,,,,,,,,,,,,,,,,,d,0,0.465,4,8,48,0,1,,,,,,,,,,,,,,,,,,,,,,,,,,,,,,,,,,,,,,,,,,
717.313,,,,,,,,Leah Curtis,2024-01-24_16h43.57.575,Mental Fatigue Training Session,2020.2.4,MacIntel,60,,,,,,,,,,,,,,,,,7,,,nonTarget,d,,,,,,,,,,,,,,,,,k,0,0.548,4,9,49,6,1,,,,,,,,,,,,,,,,,,,,,,,,,,,,,,,,,,,,,,,,,,
720.079,,,,,,,,Leah Curtis,2024-01-24_16h43.57.575,Mental Fatigue Training Session,2020.2.4,MacIntel,60,,,,,,,,,,,,,,,,,3,,,target,k,,,,,,,,,,,,,,,,,d,0,0.37,5,0,50,2,1,,,,,,,,,,,,,,,,,,,,,,,,,,,,,,,,,,,,,,,,,,
722.663,,,,,,,,Leah Curtis,2024-01-24_16h43.57.575,Mental Fatigue Training Session,2020.2.4,MacIntel,60,,,,,,,,,,,,,,,,,2,,,target,k,,,,,,,,,,,,,,,,,,0,,5,1,51,1,1,,,,,,,,,,,,,,,,,,,,,,,,,,,,,,,,,,,,,,,,,,
726.863,,,,,,,,Leah Curtis,2024-01-24_16h43.57.575,Mental Fatigue Training Session,2020.2.4,MacIntel,60,,,,,,,,,,,,,,,,,5,,,nonTarget,d,,,,,,,,,,,,,,,,,,0,,5,2,52,4,1,,,,,,,,,,,,,,,,,,,,,,,,,,,,,,,,,,,,,,,,,,
731.063,,,,,,,,Leah Curtis,2024-01-24_16h43.57.575,Mental Fatigue Training Session,2020.2.4,MacIntel,60,,,,,,,,,,,,,,,,,6,,,nonTarget,d,,,,,,,,,,,,,,,,,k,0,0.301,5,3,53,5,1,,,,,,,,,,,,,,,,,,,,,,,,,,,,,,,,,,,,,,,,,,
733.579,,,,,,,,Leah Curtis,2024-01-24_16h43.57.575,Mental Fatigue Training Session,2020.2.4,MacIntel,60,,,,,,,,,,,,,,,,,9,,,nonTarget,d,,,,,,,,,,,,,,,,,d,1,0.353,5,4,54,8,1,,,,,,,,,,,,,,,,,,,,,,,,,,,,,,,,,,,,,,,,,,
736.146,,,,,,,,Leah Curtis,2024-01-24_16h43.57.575,Mental Fatigue Training Session,2020.2.4,MacIntel,60,,,,,,,,,,,,,,,,,7,,,nonTarget,d,,,,,,,,,,,,,,,,,d,1,0.346,5,5,55,6,1,,,,,,,,,,,,,,,,,,,,,,,,,,,,,,,,,,,,,,,,,,
738.712,,,,,,,,Leah Curtis,2024-01-24_16h43.57.575,Mental Fatigue Training Session,2020.2.4,MacIntel,60,,,,,,,,,,,,,,,,,1,,,target,k,,,,,,,,,,,,,,,,,d,0,0.333,5,6,56,0,1,,,,,,,,,,,,,,,,,,,,,,,,,,,,,,,,,,,,,,,,,,
741.262,,,,,,,,Leah Curtis,2024-01-24_16h43.57.575,Mental Fatigue Training Session,2020.2.4,MacIntel,60,,,,,,,,,,,,,,,,,4,,,nonTarget,d,,,,,,,,,,,,,,,,,d,1,0.468,5,7,57,3,1,,,,,,,,,,,,,,,,,,,,,,,,,,,,,,,,,,,,,,,,,,
743.946,,,,,,,,Leah Curtis,2024-01-24_16h43.57.575,Mental Fatigue Training Session,2020.2.4,MacIntel,60,,,,,,,,,,,,,,,,,8,,,nonTarget,d,,,,,,,,,,,,,,,,,d,1,0.451,5,8,58,7,1,,,,,,,,,,,,,,,,,,,,,,,,,,,,,,,,,,,,,,,,,,
746.613,,,,,,,,Leah Curtis,2024-01-24_16h43.57.575,Mental Fatigue Training Session,2020.2.4,MacIntel,60,,,,,,,,,,,,,,,,,10,,,nonTarget,d,,,,,,,,,,,,,,,,,d,1,0.617,5,9,59,9,1,,,,,,,,,,,,,,,,,,,,,,,,,,,,,,,,,,,,,,,,,,
749.446,,,,,,,,Leah Curtis,2024-01-24_16h43.57.575,Mental Fatigue Training Session,2020.2.4,MacIntel,60,,,,,,,,,,,,,,,,,8,,,nonTarget,d,,,,,,,,,,,,,,,,,d,1,0.474,6,0,60,7,1,,,,,,,,,,,,,,,,,,,,,,,,,,,,,,,,,,,,,,,,,,
752.129,,,,,,,,Leah Curtis,2024-01-24_16h43.57.575,Mental Fatigue Training Session,2020.2.4,MacIntel,60,,,,,,,,,,,,,,,,,7,,,nonTarget,d,,,,,,,,,,,,,,,,,d,1,0.419,6,1,61,6,1,,,,,,,,,,,,,,,,,,,,,,,,,,,,,,,,,,,,,,,,,,
754.761,,,,,,,,Leah Curtis,2024-01-24_16h43.57.575,Mental Fatigue Training Session,2020.2.4,MacIntel,60,,,,,,,,,,,,,,,,,4,,,nonTarget,d,,,,,,,,,,,,,,,,,d,1,0.365,6,2,62,3,1,,,,,,,,,,,,,,,,,,,,,,,,,,,,,,,,,,,,,,,,,,
757.346,,,,,,,,Leah Curtis,2024-01-24_16h43.57.575,Mental Fatigue Training Session,2020.2.4,MacIntel,60,,,,,,,,,,,,,,,,,3,,,target,k,,,,,,,,,,,,,,,,,d,0,0.315,6,3,63,2,1,,,,,,,,,,,,,,,,,,,,,,,,,,,,,,,,,,,,,,,,,,
759.878,,,,,,,,Leah Curtis,2024-01-24_16h43.57.575,Mental Fatigue Training Session,2020.2.4,MacIntel,60,,,,,,,,,,,,,,,,,5,,,nonTarget,d,,,,,,,,,,,,,,,,,d,1,0.402,6,4,64,4,1,,,,,,,,,,,,,,,,,,,,,,,,,,,,,,,,,,,,,,,,,,
762.495,,,,,,,,Leah Curtis,2024-01-24_16h43.57.575,Mental Fatigue Training Session,2020.2.4,MacIntel,60,,,,,,,,,,,,,,,,,2,,,target,k,,,,,,,,,,,,,,,,,d,0,0.324,6,5,65,1,1,,,,,,,,,,,,,,,,,,,,,,,,,,,,,,,,,,,,,,,,,,
765.029,,,,,,,,Leah Curtis,2024-01-24_16h43.57.575,Mental Fatigue Training Session,2020.2.4,MacIntel,60,,,,,,,,,,,,,,,,,1,,,target,k,,,,,,,,,,,,,,,,,d,0,0.375,6,6,66,0,1,,,,,,,,,,,,,,,,,,,,,,,,,,,,,,,,,,,,,,,,,,
767.612,,,,,,,,Leah Curtis,2024-01-24_16h43.57.575,Mental Fatigue Training Session,2020.2.4,MacIntel,60,,,,,,,,,,,,,,,,,10,,,nonTarget,d,,,,,,,,,,,,,,,,,k,0,0.382,6,7,67,9,1,,,,,,,,,,,,,,,,,,,,,,,,,,,,,,,,,,,,,,,,,,
770.211,,,,,,,,Leah Curtis,2024-01-24_16h43.57.575,Mental Fatigue Training Session,2020.2.4,MacIntel,60,,,,,,,,,,,,,,,,,9,,,nonTarget,d,,,,,,,,,,,,,,,,,d,1,0.285,6,8,68,8,1,,,,,,,,,,,,,,,,,,,,,,,,,,,,,,,,,,,,,,,,,,
772.712,,,,,,,,Leah Curtis,2024-01-24_16h43.57.575,Mental Fatigue Training Session,2020.2.4,MacIntel,60,,,,,,,,,,,,,,,,,6,,,nonTarget,d,,,,,,,,,,,,,,,,,d,1,0.316,6,9,69,5,1,,,,,,,,,,,,,,,,,,,,,,,,,,,,,,,,,,,,,,,,,,
775.244,,,,,,,,Leah Curtis,2024-01-24_16h43.57.575,Mental Fatigue Training Session,2020.2.4,MacIntel,60,,,,,,,,,,,,,,,,,2,,,target,k,,,,,,,,,,,,,,,,,d,0,0.467,7,0,70,1,1,,,,,,,,,,,,,,,,,,,,,,,,,,,,,,,,,,,,,,,,,,
777.929,,,,,,,,Leah Curtis,2024-01-24_16h43.57.575,Mental Fatigue Training Session,2020.2.4,MacIntel,60,,,,,,,,,,,,,,,,,7,,,nonTarget,d,,,,,,,,,,,,,,,,,d,1,0.35,7,1,71,6,1,,,,,,,,,,,,,,,,,,,,,,,,,,,,,,,,,,,,,,,,,,
780.495,,,,,,,,Leah Curtis,2024-01-24_16h43.57.575,Mental Fatigue Training Session,2020.2.4,MacIntel,60,,,,,,,,,,,,,,,,,4,,,nonTarget,d,,,,,,,,,,,,,,,,,k,0,0.935,7,2,72,3,1,,,,,,,,,,,,,,,,,,,,,,,,,,,,,,,,,,,,,,,,,,
783.646,,,,,,,,Leah Curtis,2024-01-24_16h43.57.575,Mental Fatigue Training Session,2020.2.4,MacIntel,60,,,,,,,,,,,,,,,,,6,,,nonTarget,d,,,,,,,,,,,,,,,,,d,1,0.344,7,3,73,5,1,,,,,,,,,,,,,,,,,,,,,,,,,,,,,,,,,,,,,,,,,,
893.412,,,,,,,,Leah Curtis,2024-01-24_16h43.57.575,Mental Fatigue Training Session,2020.2.4,MacIntel,60,,,,,,,,,,,,,,,,,,,,,,,,,,,,,,,,,,,,,,,,,,,,,,95.951,right,95.924,right,12.419,0,0,0,0,1,,,,,,,,,,,,,,,,,,,,,,,,,,,,,,,,
905.278,,,,,,,,Leah Curtis,2024-01-24_16h43.57.575,Mental Fatigue Training Session,2020.2.4,MacIntel,60,,,,,,,,,,,,,,,,,,,,,,,,,,,,,,,,,,,,,,,,,,,,,,,,,right,11.841,1,0,1,0,1,,,,,,,,,,,,,,,,,,,,,,,,,,,,,,,,
911.511,,,,,,,,Leah Curtis,2024-01-24_16h43.57.575,Mental Fatigue Training Session,2020.2.4,MacIntel,60,,,,,,,,,,,,,,,,,,,,,,,,,,,,,,,,,,,,,,,,,,,,,,,,,k,6.212,2,0,2,0,1,,,,,,,,,,,,,,,,,,,,,,,,,,,,,,,,
912.712,,,,,,,,Leah Curtis,2024-01-24_16h43.57.575,Mental Fatigue Training Session,2020.2.4,MacIntel,60,,,,,,,,,,,,,,,,,,,,,k,,,,,,,,,,,,,,,,,,,,,,,,,,,,,,,,,,,k,1,1.04,0,0,0,6,1,target,T,,,,,,,,,,,,,,,,,,,,,,
915.995,,,,,,,,Leah Curtis,2024-01-24_16h43.57.575,Mental Fatigue Training Session,2020.2.4,MacIntel,60,,,,,,,,,,,,,,,,,,,,,d,,,,,,,,,,,,,,,,,,,,,,,,,,,,,,,,,,,d,1,0.867,0,1,1,3,1,nonTarget,L,,,,,,,,,,,,,,,,,,,,,,
919.095,,,,,,,,Leah Curtis,2024-01-24_16h43.57.575,Mental Fatigue Training Session,2020.2.4,MacIntel,60,,,,,,,,,,,,,,,,,,,,,k,,,,,,,,,,,,,,,,,,,,,,,,,,,,,,,,,,,k,1,0.887,0,2,2,2,1,target,T,,,,,,,,,,,,,,,,,,,,,,
922.212,,,,,,,,Leah Curtis,2024-01-24_16h43.57.575,Mental Fatigue Training Session,2020.2.4,MacIntel,60,,,,,,,,,,,,,,,,,,,,,d,,,,,,,,,,,,,,,,,,,,,,,,,,,,,,,,,,,d,1,1.007,0,3,3,5,1,nonTarget,L,,,,,,,,,,,,,,,,,,,,,,
925.445,,,,,,,,Leah Curtis,2024-01-24_16h43.57.575,Mental Fatigue Training Session,2020.2.4,MacIntel,60,,,,,,,,,,,,,,,,,,,,,k,,,,,,,,,,,,,,,,,,,,,,,,,,,,,,,,,,,k,1,0.879,0,4,4,4,1,target,T,,,,,,,,,,,,,,,,,,,,,,
928.561,,,,,,,,Leah Curtis,2024-01-24_16h43.57.575,Mental Fatigue Training Session,2020.2.4,MacIntel,60,,,,,,,,,,,,,,,,,,,,,d,,,,,,,,,,,,,,,,,,,,,,,,,,,,,,,,,,,d,1,0.938,0,5,5,7,1,nonTarget,L,,,,,,,,,,,,,,,,,,,,,,
931.727,,,,,,,,Leah Curtis,2024-01-24_16h43.57.575,Mental Fatigue Training Session,2020.2.4,MacIntel,60,,,,,,,,,,,,,,,,,,,,,d,,,,,,,,,,,,,,,,,,,,,,,,,,,,,,,,,,,d,1,0.722,0,6,6,1,1,nonTarget,L,,,,,,,,,,,,,,,,,,,,,,
934.678,,,,,,,,Leah Curtis,2024-01-24_16h43.57.575,Mental Fatigue Training Session,2020.2.4,MacIntel,60,,,,,,,,,,,,,,,,,,,,,k,,,,,,,,,,,,,,,,,,,,,,,,,,,,,,,,,,,k,1,0.684,0,7,7,8,1,target,T,,,,,,,,,,,,,,,,,,,,,,
937.595,,,,,,,,Leah Curtis,2024-01-24_16h43.57.575,Mental Fatigue Training Session,2020.2.4,MacIntel,60,,,,,,,,,,,,,,,,,,,,,d,,,,,,,,,,,,,,,,,,,,,,,,,,,,,,,,,,,d,1,0.811,0,8,8,9,1,nonTarget,L,,,,,,,,,,,,,,,,,,,,,,
940.628,,,,,,,,Leah Curtis,2024-01-24_16h43.57.575,Mental Fatigue Training Session,2020.2.4,MacIntel,60,,,,,,,,,,,,,,,,,,,,,k,,,,,,,,,,,,,,,,,,,,,,,,,,,,,,,,,,,k,1,1.004,0,9,9,0,1,target,T,,,,,,,,,,,,,,,,,,,,,,
943.862,,,,,,,,Leah Curtis,2024-01-24_16h43.57.575,Mental Fatigue Training Session,2020.2.4,MacIntel,60,,,,,,,,,,,,,,,,,,,,,d,,,,,,,,,,,,,,,,,,,,,,,,,,,,,,,,,,,d,1,1.362,1,0,10,1,1,nonTarget,L,,,,,,,,,,,,,,,,,,,,,,
947.462,,,,,,,,Leah Curtis,2024-01-24_16h43.57.575,Mental Fatigue Training Session,2020.2.4,MacIntel,60,,,,,,,,,,,,,,,,,,,,,k,,,,,,,,,,,,,,,,,,,,,,,,,,,,,,,,,,,k,1,0.887,1,1,11,0,1,target,T,,,,,,,,,,,,,,,,,,,,,,
950.578,,,,,,,,Leah Curtis,2024-01-24_16h43.57.575,Mental Fatigue Training Session,2020.2.4,MacIntel,60,,,,,,,,,,,,,,,,,,,,,k,,,,,,,,,,,,,,,,,,,,,,,,,,,,,,,,,,,k,1,0.942,1,2,12,8,1,target,T,,,,,,,,,,,,,,,,,,,,,,
953.745,,,,,,,,Leah Curtis,2024-01-24_16h43.57.575,Mental Fatigue Training Session,2020.2.4,MacIntel,60,,,,,,,,,,,,,,,,,,,,,k,,,,,,,,,,,,,,,,,,,,,,,,,,,,,,,,,,,k,1,1.47,1,3,13,6,1,target,T,,,,,,,,,,,,,,,,,,,,,,
957.427,,,,,,,,Leah Curtis,2024-01-24_16h43.57.575,Mental Fatigue Training Session,2020.2.4,MacIntel,60,,,,,,,,,,,,,,,,,,,,,d,,,,,,,,,,,,,,,,,,,,,,,,,,,,,,,,,,,d,1,1.439,1,4,14,7,1,nonTarget,L,,,,,,,,,,,,,,,,,,,,,,
961.095,,,,,,,,Leah Curtis,2024-01-24_16h43.57.575,Mental Fatigue Training Session,2020.2.4,MacIntel,60,,,,,,,,,,,,,,,,,,,,,k,,,,,,,,,,,,,,,,,,,,,,,,,,,,,,,,,,,k,1,1.37,1,5,15,4,1,target,T,,,,,,,,,,,,,,,,,,,,,,
964.694,,,,,,,,Leah Curtis,2024-01-24_16h43.57.575,Mental Fatigue Training Session,2020.2.4,MacIntel,60,,,,,,,,,,,,,,,,,,,,,d,,,,,,,,,,,,,,,,,,,,,,,,,,,,,,,,,,,d,1,1.145,1,6,16,3,1,nonTarget,L,,,,,,,,,,,,,,,,,,,,,,
968.061,,,,,,,,Leah Curtis,2024-01-24_16h43.57.575,Mental Fatigue Training Session,2020.2.4,MacIntel,60,,,,,,,,,,,,,,,,,,,,,d,,,,,,,,,,,,,,,,,,,,,,,,,,,,,,,,,,,d,1,1.601,1,7,17,9,1,nonTarget,L,,,,,,,,,,,,,,,,,,,,,,
971.894,,,,,,,,Leah Curtis,2024-01-24_16h43.57.575,Mental Fatigue Training Session,2020.2.4,MacIntel,60,,,,,,,,,,,,,,,,,,,,,k,,,,,,,,,,,,,,,,,,,,,,,,,,,,,,,,,,,k,1,0.76,1,8,18,2,1,target,T,,,,,,,,,,,,,,,,,,,,,,
974.878,,,,,,,,Leah Curtis,2024-01-24_16h43.57.575,Mental Fatigue Training Session,2020.2.4,MacIntel,60,,,,,,,,,,,,,,,,,,,,,d,,,,,,,,,,,,,,,,,,,,,,,,,,,,,,,,,,,d,1,0.918,1,9,19,5,1,nonTarget,L,,,,,,,,,,,,,,,,,,,,,,
978.028,,,,,,,,Leah Curtis,2024-01-24_16h43.57.575,Mental Fatigue Training Session,2020.2.4,MacIntel,60,,,,,,,,,,,,,,,,,,,,,k,,,,,,,,,,,,,,,,,,,,,,,,,,,,,,,,,,,k,1,1.111,2,0,20,8,1,target,T,,,,,,,,,,,,,,,,,,,,,,
981.36,,,,,,,,Leah Curtis,2024-01-24_16h43.57.575,Mental Fatigue Training Session,2020.2.4,MacIntel,60,,,,,,,,,,,,,,,,,,,,,k,,,,,,,,,,,,,,,,,,,,,,,,,,,,,,,,,,,d,0,1.22,2,1,21,6,1,target,T,,,,,,,,,,,,,,,,,,,,,,
984.811,,,,,,,,Leah Curtis,2024-01-24_16h43.57.575,Mental Fatigue Training Session,2020.2.4,MacIntel,60,,,,,,,,,,,,,,,,,,,,,k,,,,,,,,,,,,,,,,,,,,,,,,,,,,,,,,,,,k,1,1.382,2,2,22,2,1,target,T,,,,,,,,,,,,,,,,,,,,,,
988.428,,,,,,,,Leah Curtis,2024-01-24_16h43.57.575,Mental Fatigue Training Session,2020.2.4,MacIntel,60,,,,,,,,,,,,,,,,,,,,,k,,,,,,,,,,,,,,,,,,,,,,,,,,,,,,,,,,,k,1,1.25,2,3,23,4,1,target,T,,,,,,,,,,,,,,,,,,,,,,
991.911,,,,,,,,Leah Curtis,2024-01-24_16h43.57.575,Mental Fatigue Training Session,2020.2.4,MacIntel,60,,,,,,,,,,,,,,,,,,,,,k,,,,,,,,,,,,,,,,,,,,,,,,,,,,,,,,,,,k,1,1.077,2,4,24,0,1,target,T,,,,,,,,,,,,,,,,,,,,,,
995.211,,,,,,,,Leah Curtis,2024-01-24_16h43.57.575,Mental Fatigue Training Session,2020.2.4,MacIntel,60,,,,,,,,,,,,,,,,,,,,,d,,,,,,,,,,,,,,,,,,,,,,,,,,,,,,,,,,,d,1,1.37,2,5,25,1,1,nonTarget,L,,,,,,,,,,,,,,,,,,,,,,
998.81,,,,,,,,Leah Curtis,2024-01-24_16h43.57.575,Mental Fatigue Training Session,2020.2.4,MacIntel,60,,,,,,,,,,,,,,,,,,,,,d,,,,,,,,,,,,,,,,,,,,,,,,,,,,,,,,,,,d,1,1.488,2,6,26,9,1,nonTarget,L,,,,,,,,,,,,,,,,,,,,,,
1002.528,,,,,,,,Leah Curtis,2024-01-24_16h43.57.575,Mental Fatigue Training Session,2020.2.4,MacIntel,60,,,,,,,,,,,,,,,,,,,,,d,,,,,,,,,,,,,,,,,,,,,,,,,,,,,,,,,,,d,1,1.485,2,7,27,7,1,nonTarget,L,,,,,,,,,,,,,,,,,,,,,,
1006.243,,,,,,,,Leah Curtis,2024-01-24_16h43.57.575,Mental Fatigue Training Session,2020.2.4,MacIntel,60,,,,,,,,,,,,,,,,,,,,,d,,,,,,,,,,,,,,,,,,,,,,,,,,,,,,,,,,,d,1,1.297,2,8,28,5,1,nonTarget,L,,,,,,,,,,,,,,,,,,,,,,
1009.761,,,,,,,,Leah Curtis,2024-01-24_16h43.57.575,Mental Fatigue Training Session,2020.2.4,MacIntel,60,,,,,,,,,,,,,,,,,,,,,d,,,,,,,,,,,,,,,,,,,,,,,,,,,,,,,,,,,d,1,1.298,2,9,29,3,1,nonTarget,L,,,,,,,,,,,,,,,,,,,,,,
1013.293,,,,,,,,Leah Curtis,2024-01-24_16h43.57.575,Mental Fatigue Training Session,2020.2.4,MacIntel,60,,,,,,,,,,,,,,,,,,,,,k,,,,,,,,,,,,,,,,,,,,,,,,,,,,,,,,,,,k,1,0.91,3,0,30,6,1,target,T,,,,,,,,,,,,,,,,,,,,,,
1016.427,,,,,,,,Leah Curtis,2024-01-24_16h43.57.575,Mental Fatigue Training Session,2020.2.4,MacIntel,60,,,,,,,,,,,,,,,,,,,,,d,,,,,,,,,,,,,,,,,,,,,,,,,,,,,,,,,,,d,1,1.267,3,1,31,1,1,nonTarget,L,,,,,,,,,,,,,,,,,,,,,,
1019.927,,,,,,,,Leah Curtis,2024-01-24_16h43.57.575,Mental Fatigue Training Session,2020.2.4,MacIntel,60,,,,,,,,,,,,,,,,,,,,,d,,,,,,,,,,,,,,,,,,,,,,,,,,,,,,,,,,,d,1,1.312,3,2,32,3,1,nonTarget,L,,,,,,,,,,,,,,,,,,,,,,
1023.461,,,,,,,,Leah Curtis,2024-01-24_16h43.57.575,Mental Fatigue Training Session,2020.2.4,MacIntel,60,,,,,,,,,,,,,,,,,,,,,d,,,,,,,,,,,,,,,,,,,,,,,,,,,,,,,,,,,d,1,1.595,3,3,33,5,1,nonTarget,L,,,,,,,,,,,,,,,,,,,,,,
1027.277,,,,,,,,Leah Curtis,2024-01-24_16h43.57.575,Mental Fatigue Training Session,2020.2.4,MacIntel,60,,,,,,,,,,,,,,,,,,,,,k,,,,,,,,,,,,,,,,,,,,,,,,,,,,,,,,,,,k,1,1.326,3,4,34,0,1,target,T,,,,,,,,,,,,,,,,,,,,,,
1030.827,,,,,,,,Leah Curtis,2024-01-24_16h43.57.575,Mental Fatigue Training Session,2020.2.4,MacIntel,60,,,,,,,,,,,,,,,,,,,,,k,,,,,,,,,,,,,,,,,,,,,,,,,,,,,,,,,,,k,1,1.539,3,5,35,8,1,target,T,,,,,,,,,,,,,,,,,,,,,,
1034.593,,,,,,,,Leah Curtis,2024-01-24_16h43.57.575,Mental Fatigue Training Session,2020.2.4,MacIntel,60,,,,,,,,,,,,,,,,,,,,,k,,,,,,,,,,,,,,,,,,,,,,,,,,,,,,,,,,,k,1,0.774,3,6,36,4,1,target,T,,,,,,,,,,,,,,,,,,,,,,
1037.593,,,,,,,,Leah Curtis,2024-01-24_16h43.57.575,Mental Fatigue Training Session,2020.2.4,MacIntel,60,,,,,,,,,,,,,,,,,,,,,d,,,,,,,,,,,,,,,,,,,,,,,,,,,,,,,,,,,d,1,1.055,3,7,37,9,1,nonTarget,L,,,,,,,,,,,,,,,,,,,,,,
1040.877,,,,,,,,Leah Curtis,2024-01-24_16h43.57.575,Mental Fatigue Training Session,2020.2.4,MacIntel,60,,,,,,,,,,,,,,,,,,,,,k,,,,,,,,,,,,,,,,,,,,,,,,,,,,,,,,,,,k,1,1.326,3,8,38,2,1,target,T,,,,,,,,,,,,,,,,,,,,,,
1044.427,,,,,,,,Leah Curtis,2024-01-24_16h43.57.575,Mental Fatigue Training Session,2020.2.4,MacIntel,60,,,,,,,,,,,,,,,,,,,,,d,,,,,,,,,,,,,,,,,,,,,,,,,,,,,,,,,,,d,1,1.675,3,9,39,7,1,nonTarget,L,,,,,,,,,,,,,,,,,,,,,,
1048.326,,,,,,,,Leah Curtis,2024-01-24_16h43.57.575,Mental Fatigue Training Session,2020.2.4,MacIntel,60,,,,,,,,,,,,,,,,,,,,,d,,,,,,,,,,,,,,,,,,,,,,,,,,,,,,,,,,,d,1,1.444,4,0,40,5,1,nonTarget,L,,,,,,,,,,,,,,,,,,,,,,
1051.994,,,,,,,,Leah Curtis,2024-01-24_16h43.57.575,Mental Fatigue Training Session,2020.2.4,MacIntel,60,,,,,,,,,,,,,,,,,,,,,d,,,,,,,,,,,,,,,,,,,,,,,,,,,,,,,,,,,d,1,1.383,4,1,41,7,1,nonTarget,L,,,,,,,,,,,,,,,,,,,,,,
1055.61,,,,,,,,Leah Curtis,2024-01-24_16h43.57.575,Mental Fatigue Training Session,2020.2.4,MacIntel,60,,,,,,,,,,,,,,,,,,,,,k,,,,,,,,,,,,,,,,,,,,,,,,,,,,,,,,,,,k,1,0.714,4,2,42,4,1,target,T,,,,,,,,,,,,,,,,,,,,,,
1058.543,,,,,,,,Leah Curtis,2024-01-24_16h43.57.575,Mental Fatigue Training Session,2020.2.4,MacIntel,60,,,,,,,,,,,,,,,,,,,,,k,,,,,,,,,,,,,,,,,,,,,,,,,,,,,,,,,,,k,1,1.337,4,3,43,2,1,target,T,,,,,,,,,,,,,,,,,,,,,,
1062.11,,,,,,,,Leah Curtis,2024-01-24_16h43.57.575,Mental Fatigue Training Session,2020.2.4,MacIntel,60,,,,,,,,,,,,,,,,,,,,,d,,,,,,,,,,,,,,,,,,,,,,,,,,,,,,,,,,,d,1,1.512,4,4,44,1,1,nonTarget,L,,,,,,,,,,,,,,,,,,,,,,
1065.843,,,,,,,,Leah Curtis,2024-01-24_16h43.57.575,Mental Fatigue Training Session,2020.2.4,MacIntel,60,,,,,,,,,,,,,,,,,,,,,d,,,,,,,,,,,,,,,,,,,,,,,,,,,,,,,,,,,d,1,1.84,4,5,45,3,1,nonTarget,L,,,,,,,,,,,,,,,,,,,,,,
1069.909,,,,,,,,Leah Curtis,2024-01-24_16h43.57.575,Mental Fatigue Training Session,2020.2.4,MacIntel,60,,,,,,,,,,,,,,,,,,,,,d,,,,,,,,,,,,,,,,,,,,,,,,,,,,,,,,,,,d,1,1.116,4,6,46,9,1,nonTarget,L,,,,,,,,,,,,,,,,,,,,,,
1073.259,,,,,,,,Leah Curtis,2024-01-24_16h43.57.575,Mental Fatigue Training Session,2020.2.4,MacIntel,60,,,,,,,,,,,,,,,,,,,,,k,,,,,,,,,,,,,,,,,,,,,,,,,,,,,,,,,,,k,1,1.005,4,7,47,6,1,target,T,,,,,,,,,,,,,,,,,,,,,,
1076.492,,,,,,,,Leah Curtis,2024-01-24_16h43.57.575,Mental Fatigue Training Session,2020.2.4,MacIntel,60,,,,,,,,,,,,,,,,,,,,,k,,,,,,,,,,,,,,,,,,,,,,,,,,,,,,,,,,,k,1,0.693,4,8,48,8,1,target,T,,,,,,,,,,,,,,,,,,,,,,
1079.409,,,,,,,,Leah Curtis,2024-01-24_16h43.57.575,Mental Fatigue Training Session,2020.2.4,MacIntel,60,,,,,,,,,,,,,,,,,,,,,k,,,,,,,,,,,,,,,,,,,,,,,,,,,,,,,,,,,k,1,0.61,4,9,49,0,1,target,T,,,,,,,,,,,,,,,,,,,,,,
1082.242,,,,,,,,Leah Curtis,2024-01-24_16h43.57.575,Mental Fatigue Training Session,2020.2.4,MacIntel,60,,,,,,,,,,,,,,,,,,,,,k,,,,,,,,,,,,,,,,,,,,,,,,,,,,,,,,,,,k,1,0.703,5,0,50,6,1,target,T,,,,,,,,,,,,,,,,,,,,,,
1085.176,,,,,,,,Leah Curtis,2024-01-24_16h43.57.575,Mental Fatigue Training Session,2020.2.4,MacIntel,60,,,,,,,,,,,,,,,,,,,,,d,,,,,,,,,,,,,,,,,,,,,,,,,,,,,,,,,,,d,1,1.148,5,1,51,1,1,nonTarget,L,,,,,,,,,,,,,,,,,,,,,,
1088.559,,,,,,,,Leah Curtis,2024-01-24_16h43.57.575,Mental Fatigue Training Session,2020.2.4,MacIntel,60,,,,,,,,,,,,,,,,,,,,,d,,,,,,,,,,,,,,,,,,,,,,,,,,,,,,,,,,,d,1,1.15,5,2,52,9,1,nonTarget,L,,,,,,,,,,,,,,,,,,,,,,
1091.942,,,,,,,,Leah Curtis,2024-01-24_16h43.57.575,Mental Fatigue Training Session,2020.2.4,MacIntel,60,,,,,,,,,,,,,,,,,,,,,d,,,,,,,,,,,,,,,,,,,,,,,,,,,,,,,,,,,d,1,1.39,5,3,53,3,1,nonTarget,L,,,,,,,,,,,,,,,,,,,,,,
1095.559,,,,,,,,Leah Curtis,2024-01-24_16h43.57.575,Mental Fatigue Training Session,2020.2.4,MacIntel,60,,,,,,,,,,,,,,,,,,,,,k,,,,,,,,,,,,,,,,,,,,,,,,,,,,,,,,,,,k,1,0.829,5,4,54,8,1,target,T,,,,,,,,,,,,,,,,,,,,,,
1098.625,,,,,,,,Leah Curtis,2024-01-24_16h43.57.575,Mental Fatigue Training Session,2020.2.4,MacIntel,60,,,,,,,,,,,,,,,,,,,,,k,,,,,,,,,,,,,,,,,,,,,,,,,,,,,,,,,,,d,0,1.094,5,5,55,0,1,target,T,,,,,,,,,,,,,,,,,,,,,,
1101.942,,,,,,,,Leah Curtis,2024-01-24_16h43.57.575,Mental Fatigue Training Session,2020.2.4,MacIntel,60,,,,,,,,,,,,,,,,,,,,,k,,,,,,,,,,,,,,,,,,,,,,,,,,,,,,,,,,,k,1,0.726,5,6,56,4,1,target,T,,,,,,,,,,,,,,,,,,,,,,
1104.892,,,,,,,,Leah Curtis,2024-01-24_16h43.57.575,Mental Fatigue Training Session,2020.2.4,MacIntel,60,,,,,,,,,,,,,,,,,,,,,d,,,,,,,,,,,,,,,,,,,,,,,,,,,,,,,,,,,d,1,0.757,5,7,57,7,1,nonTarget,L,,,,,,,,,,,,,,,,,,,,,,
1107.876,,,,,,,,Leah Curtis,2024-01-24_16h43.57.575,Mental Fatigue Training Session,2020.2.4,MacIntel,60,,,,,,,,,,,,,,,,,,,,,d,,,,,,,,,,,,,,,,,,,,,,,,,,,,,,,,,,,d,1,0.846,5,8,58,5,1,nonTarget,L,,,,,,,,,,,,,,,,,,,,,,
1110.959,,,,,,,,Leah Curtis,2024-01-24_16h43.57.575,Mental Fatigue Training Session,2020.2.4,MacIntel,60,,,,,,,,,,,,,,,,,,,,,k,,,,,,,,,,,,,,,,,,,,,,,,,,,,,,,,,,,k,1,0.547,5,9,59,2,1,target,T,,,,,,,,,,,,,,,,,,,,,,
1113.725,,,,,,,,Leah Curtis,2024-01-24_16h43.57.575,Mental Fatigue Training Session,2020.2.4,MacIntel,60,,,,,,,,,,,,,,,,,,,,,k,,,,,,,,,,,,,,,,,,,,,,,,,,,,,,,,,,,k,1,0.707,6,0,60,8,1,target,T,,,,,,,,,,,,,,,,,,,,,,
1116.659,,,,,,,,Leah Curtis,2024-01-24_16h43.57.575,Mental Fatigue Training Session,2020.2.4,MacIntel,60,,,,,,,,,,,,,,,,,,,,,d,,,,,,,,,,,,,,,,,,,,,,,,,,,,,,,,,,,d,1,1.288,6,1,61,9,1,nonTarget,L,,,,,,,,,,,,,,,,,,,,,,
1120.176,,,,,,,,Leah Curtis,2024-01-24_16h43.57.575,Mental Fatigue Training Session,2020.2.4,MacIntel,60,,,,,,,,,,,,,,,,,,,,,d,,,,,,,,,,,,,,,,,,,,,,,,,,,,,,,,,,,d,1,1.149,6,2,62,5,1,nonTarget,L,,,,,,,,,,,,,,,,,,,,,,
1123.559,,,,,,,,Leah Curtis,2024-01-24_16h43.57.575,Mental Fatigue Training Session,2020.2.4,MacIntel,60,,,,,,,,,,,,,,,,,,,,,d,,,,,,,,,,,,,,,,,,,,,,,,,,,,,,,,,,,d,1,0.776,6,3,63,3,1,nonTarget,L,,,,,,,,,,,,,,,,,,,,,,
1126.559,,,,,,,,Leah Curtis,2024-01-24_16h43.57.575,Mental Fatigue Training Session,2020.2.4,MacIntel,60,,,,,,,,,,,,,,,,,,,,,k,,,,,,,,,,,,,,,,,,,,,,,,,,,,,,,,,,,k,1,0.807,6,4,64,0,1,target,T,,,,,,,,,,,,,,,,,,,,,,
1129.592,,,,,,,,Leah Curtis,2024-01-24_16h43.57.575,Mental Fatigue Training Session,2020.2.4,MacIntel,60,,,,,,,,,,,,,,,,,,,,,d,,,,,,,,,,,,,,,,,,,,,,,,,,,,,,,,,,,d,1,0.723,6,5,65,1,1,nonTarget,L,,,,,,,,,,,,,,,,,,,,,,
1132.542,,,,,,,,Leah Curtis,2024-01-24_16h43.57.575,Mental Fatigue Training Session,2020.2.4,MacIntel,60,,,,,,,,,,,,,,,,,,,,,k,,,,,,,,,,,,,,,,,,,,,,,,,,,,,,,,,,,d,0,0.762,6,6,66,4,1,target,T,,,,,,,,,,,,,,,,,,,,,,
1135.526,,,,,,,,Leah Curtis,2024-01-24_16h43.57.575,Mental Fatigue Training Session,2020.2.4,MacIntel,60,,,,,,,,,,,,,,,,,,,,,d,,,,,,,,,,,,,,,,,,,,,,,,,,,,,,,,,,,d,1,0.894,6,7,67,7,1,nonTarget,L,,,,,,,,,,,,,,,,,,,,,,
1138.642,,,,,,,,Leah Curtis,2024-01-24_16h43.57.575,Mental Fatigue Training Session,2020.2.4,MacIntel,60,,,,,,,,,,,,,,,,,,,,,k,,,,,,,,,,,,,,,,,,,,,,,,,,,,,,,,,,,k,1,1.842,6,8,68,2,1,target,T,,,,,,,,,,,,,,,,,,,,,,
1142.709,,,,,,,,Leah Curtis,2024-01-24_16h43.57.575,Mental Fatigue Training Session,2020.2.4,MacIntel,60,,,,,,,,,,,,,,,,,,,,,k,,,,,,,,,,,,,,,,,,,,,,,,,,,,,,,,,,,k,1,0.894,6,9,69,6,1,target,T,,,,,,,,,,,,,,,,,,,,,,
1145.825,,,,,,,,Leah Curtis,2024-01-24_16h43.57.575,Mental Fatigue Training Session,2020.2.4,MacIntel,60,,,,,,,,,,,,,,,,,,,,,d,,,,,,,,,,,,,,,,,,,,,,,,,,,,,,,,,,,d,1,1.156,7,0,70,3,1,nonTarget,L,,,,,,,,,,,,,,,,,,,,,,
1149.208,,,,,,,,Leah Curtis,2024-01-24_16h43.57.575,Mental Fatigue Training Session,2020.2.4,MacIntel,60,,,,,,,,,,,,,,,,,,,,,d,,,,,,,,,,,,,,,,,,,,,,,,,,,,,,,,,,,d,1,1.391,7,1,71,5,1,nonTarget,L,,,,,,,,,,,,,,,,,,,,,,
1152.825,,,,,,,,Leah Curtis,2024-01-24_16h43.57.575,Mental Fatigue Training Session,2020.2.4,MacIntel,60,,,,,,,,,,,,,,,,,,,,,d,,,,,,,,,,,,,,,,,,,,,,,,,,,,,,,,,,,d,1,1.327,7,2,72,9,1,nonTarget,L,,,,,,,,,,,,,,,,,,,,,,
1156.375,,,,,,,,Leah Curtis,2024-01-24_16h43.57.575,Mental Fatigue Training Session,2020.2.4,MacIntel,60,,,,,,,,,,,,,,,,,,,,,k,,,,,,,,,,,,,,,,,,,,,,,,,,,,,,,,,,,k,1,0.759,7,3,73,8,1,target,T,,,,,,,,,,,,,,,,,,,,,,
1159.359,,,,,,,,Leah Curtis,2024-01-24_16h43.57.575,Mental Fatigue Training Session,2020.2.4,MacIntel,60,,,,,,,,,,,,,,,,,,,,,d,,,,,,,,,,,,,,,,,,,,,,,,,,,,,,,,,,,d,1,1.245,7,4,74,1,1,nonTarget,L,,,,,,,,,,,,,,,,,,,,,,
1162.825,,,,,,,,Leah Curtis,2024-01-24_16h43.57.575,Mental Fatigue Training Session,2020.2.4,MacIntel,60,,,,,,,,,,,,,,,,,,,,,k,,,,,,,,,,,,,,,,,,,,,,,,,,,,,,,,,,,k,1,1.15,7,5,75,2,1,target,T,,,,,,,,,,,,,,,,,,,,,,
1166.208,,,,,,,,Leah Curtis,2024-01-24_16h43.57.575,Mental Fatigue Training Session,2020.2.4,MacIntel,60,,,,,,,,,,,,,,,,,,,,,k,,,,,,,,,,,,,,,,,,,,,,,,,,,,,,,,,,,k,1,0.924,7,6,76,4,1,target,T,,,,,,,,,,,,,,,,,,,,,,
1169.358,,,,,,,,Leah Curtis,2024-01-24_16h43.57.575,Mental Fatigue Training Session,2020.2.4,MacIntel,60,,,,,,,,,,,,,,,,,,,,,d,,,,,,,,,,,,,,,,,,,,,,,,,,,,,,,,,,,d,1,1.639,7,7,77,7,1,nonTarget,L,,,,,,,,,,,,,,,,,,,,,,
1173.225,,,,,,,,Leah Curtis,2024-01-24_16h43.57.575,Mental Fatigue Training Session,2020.2.4,MacIntel,60,,,,,,,,,,,,,,,,,,,,,k,,,,,,,,,,,,,,,,,,,,,,,,,,,,,,,,,,,k,1,1.154,7,8,78,6,1,target,T,,,,,,,,,,,,,,,,,,,,,,
1176.605,,,,,,,,Leah Curtis,2024-01-24_16h43.57.575,Mental Fatigue Training Session,2020.2.4,MacIntel,60,,,,,,,,,,,,,,,,,,,,,k,,,,,,,,,,,,,,,,,,,,,,,,,,,,,,,,,,,k,1,0.894,7,9,79,0,1,target,T,,,,,,,,,,,,,,,,,,,,,,
1179.741,,,,,,,,Leah Curtis,2024-01-24_16h43.57.575,Mental Fatigue Training Session,2020.2.4,MacIntel,60,,,,,,,,,,,,,,,,,,,,,k,,,,,,,,,,,,,,,,,,,,,,,,,,,,,,,,,,,k,1,0.805,8,0,80,2,1,target,T,,,,,,,,,,,,,,,,,,,,,,
1182.776,,,,,,,,Leah Curtis,2024-01-24_16h43.57.575,Mental Fatigue Training Session,2020.2.4,MacIntel,60,,,,,,,,,,,,,,,,,,,,,d,,,,,,,,,,,,,,,,,,,,,,,,,,,,,,,,,,,d,1,1.02,8,1,81,1,1,nonTarget,L,,,,,,,,,,,,,,,,,,,,,,
1186.027,,,,,,,,Leah Curtis,2024-01-24_16h43.57.575,Mental Fatigue Training Session,2020.2.4,MacIntel,60,,,,,,,,,,,,,,,,,,,,,d,,,,,,,,,,,,,,,,,,,,,,,,,,,,,,,,,,,d,1,1.116,8,2,82,5,1,nonTarget,L,,,,,,,,,,,,,,,,,,,,,,
1189.378,,,,,,,,Leah Curtis,2024-01-24_16h43.57.575,Mental Fatigue Training Session,2020.2.4,MacIntel,60,,,,,,,,,,,,,,,,,,,,,d,,,,,,,,,,,,,,,,,,,,,,,,,,,,,,,,,,,d,1,1.637,8,3,83,3,1,nonTarget,L,,,,,,,,,,,,,,,,,,,,,,
1193.244,,,,,,,,Leah Curtis,2024-01-24_16h43.57.575,Mental Fatigue Training Session,2020.2.4,MacIntel,60,,,,,,,,,,,,,,,,,,,,,k,,,,,,,,,,,,,,,,,,,,,,,,,,,,,,,,,,,k,1,0.687,8,4,84,0,1,target,T,,,,,,,,,,,,,,,,,,,,,,
1196.161,,,,,,,,Leah Curtis,2024-01-24_16h43.57.575,Mental Fatigue Training Session,2020.2.4,MacIntel,60,,,,,,,,,,,,,,,,,,,,,d,,,,,,,,,,,,,,,,,,,,,,,,,,,,,,,,,,,d,1,1.28,8,5,85,7,1,nonTarget,L,,,,,,,,,,,,,,,,,,,,,,
1199.677,,,,,,,,Leah Curtis,2024-01-24_16h43.57.575,Mental Fatigue Training Session,2020.2.4,MacIntel,60,,,,,,,,,,,,,,,,,,,,,d,,,,,,,,,,,,,,,,,,,,,,,,,,,,,,,,,,,d,1,1.987,8,6,86,9,1,nonTarget,L,,,,,,,,,,,,,,,,,,,,,,
1203.894,,,,,,,,Leah Curtis,2024-01-24_16h43.57.575,Mental Fatigue Training Session,2020.2.4,MacIntel,60,,,,,,,,,,,,,,,,,,,,,k,,,,,,,,,,,,,,,,,,,,,,,,,,,,,,,,,,,k,1,0.823,8,7,87,6,1,target,T,,,,,,,,,,,,,,,,,,,,,,
1206.944,,,,,,,,Leah Curtis,2024-01-24_16h43.57.575,Mental Fatigue Training Session,2020.2.4,MacIntel,60,,,,,,,,,,,,,,,,,,,,,k,,,,,,,,,,,,,,,,,,,,,,,,,,,,,,,,,,,k,1,0.776,8,8,88,8,1,target,T,,,,,,,,,,,,,,,,,,,,,,
1209.943,,,,,,,,Leah Curtis,2024-01-24_16h43.57.575,Mental Fatigue Training Session,2020.2.4,MacIntel,60,,,,,,,,,,,,,,,,,,,,,k,,,,,,,,,,,,,,,,,,,,,,,,,,,,,,,,,,,d,0,0.847,8,9,89,4,1,target,T,,,,,,,,,,,,,,,,,,,,,,
1213.013,,,,,,,,Leah Curtis,2024-01-24_16h43.57.575,Mental Fatigue Training Session,2020.2.4,MacIntel,60,,,,,,,,,,,,,,,,,,,,,k,,,,,,,,,,,,,,,,,,,,,,,,,,,,,,,,,,,k,1,1.103,9,0,90,0,1,target,T,,,,,,,,,,,,,,,,,,,,,,
1237.343,,,,,,,,Leah Curtis,2024-01-24_16h43.57.575,Mental Fatigue Training Session,2020.2.4,MacIntel,60,,,,,,,,,,,,,,,,,,,,,,,,,,,,,,,,,,,,,,,,,,,,,,,,,,,,,,,,,,,,,,,,,,6.265,right,6.246,right,15.853,0,0,0,0,1,,,,,,,,,,,,
1245.426,,,,,,,,Leah Curtis,2024-01-24_16h43.57.575,Mental Fatigue Training Session,2020.2.4,MacIntel,60,,,,,,,,,,,,,,,,,,,,,,,,,,,,,,,,,,,,,,,,,,,,,,,,,,,,,,,,,,,,,,,,,,,,,right,8.049,1,0,1,0,1,,,,,,,,,,,,
1249.527,,,,,,,,Leah Curtis,2024-01-24_16h43.57.575,Mental Fatigue Training Session,2020.2.4,MacIntel,60,,,,,,,,,,,,,,,,,,,,,,,,,,,,,,,,,,,,,,,,,,,,,,,,,,,,,,,,,,,,,,,,,,,,,right,4.068,2,0,2,0,1,,,,,,,,,,,,
1256.06,,,,,,,,Leah Curtis,2024-01-24_16h43.57.575,Mental Fatigue Training Session,2020.2.4,MacIntel,60,,,,,,,,,,,,,,,,,,,,,,,,,,,,,,,,,,,,,,,,,,,,,,,,,,,,,,,,,,,,,,,,,,,,,right,6.505,3,0,3,0,1,,,,,,,,,,,,
1269.509,,,,,,,,Leah Curtis,2024-01-24_16h43.57.575,Mental Fatigue Training Session,2020.2.4,MacIntel,60,,,,,,,,,,,,,,,,,,,,,,,,,,,,,,,,,,,,,,,,,,,,,,,,,,,,,,,,,,,,,,,,,,,,,k,13.423,4,0,4,0,1,,,,,,,,,,,,
1272.576,,,,,,,,Leah Curtis,2024-01-24_16h43.57.575,Mental Fatigue Training Session,2020.2.4,MacIntel,60,,,,,,,,,,,,,,,,,,,,,d,,,,,,,,,,,,,,,,,,,,,,,,,,,,,,,,,,,,,,,,,,,,,,,,,,,,,,,d,1,2.728,0,0,0,13,1,8_150_R.jpg,150,,
1277.542,,,,,,,,Leah Curtis,2024-01-24_16h43.57.575,Mental Fatigue Training Session,2020.2.4,MacIntel,60,,,,,,,,,,,,,,,,,,,,,k,,,,,,,,,,,,,,,,,,,,,,,,,,,,,,,,,,,,,,,,,,,,,,,,,,,,,,,k,1,1.513,0,1,1,64,1,31_0.jpg,0,,
1281.276,,,,,,,,Leah Curtis,2024-01-24_16h43.57.575,Mental Fatigue Training Session,2020.2.4,MacIntel,60,,,,,,,,,,,,,,,,,,,,,k,,,,,,,,,,,,,,,,,,,,,,,,,,,,,,,,,,,,,,,,,,,,,,,,,,,,,,,k,1,2.268,0,2,2,30,1,21_50.jpg,50,,
1285.759,,,,,,,,Leah Curtis,2024-01-24_16h43.57.575,Mental Fatigue Training Session,2020.2.4,MacIntel,60,,,,,,,,,,,,,,,,,,,,,d,,,,,,,,,,,,,,,,,,,,,,,,,,,,,,,,,,,,,,,,,,,,,,,,,,,,,,,k,0,1.393,0,3,3,17,1,19_0_R.jpg,0,,
1289.376,,,,,,,,Leah Curtis,2024-01-24_16h43.57.575,Mental Fatigue Training Session,2020.2.4,MacIntel,60,,,,,,,,,,,,,,,,,,,,,k,,,,,,,,,,,,,,,,,,,,,,,,,,,,,,,,,,,,,,,,,,,,,,,,,,,,,,,k,1,2.13,0,4,4,12,1,8_150.jpg,150,,
1293.726,,,,,,,,Leah Curtis,2024-01-24_16h43.57.575,Mental Fatigue Training Session,2020.2.4,MacIntel,60,,,,,,,,,,,,,,,,,,,,,d,,,,,,,,,,,,,,,,,,,,,,,,,,,,,,,,,,,,,,,,,,,,,,,,,,,,,,,d,1,1.867,0,5,5,47,1,25_50_R.jpg,50,,
1297.81,,,,,,,,Leah Curtis,2024-01-24_16h43.57.575,Mental Fatigue Training Session,2020.2.4,MacIntel,60,,,,,,,,,,,,,,,,,,,,,k,,,,,,,,,,,,,,,,,,,,,,,,,,,,,,,,,,,,,,,,,,,,,,,,,,,,,,,k,1,2.115,0,6,6,90,1,48_100.jpg,100,,
1302.143,,,,,,,,Leah Curtis,2024-01-24_16h43.57.575,Mental Fatigue Training Session,2020.2.4,MacIntel,60,,,,,,,,,,,,,,,,,,,,,d,,,,,,,,,,,,,,,,,,,,,,,,,,,,,,,,,,,,,,,,,,,,,,,,,,,,,,,d,1,2.168,0,7,7,11,1,8_100_R.jpg,100,,
1306.525,,,,,,,,Leah Curtis,2024-01-24_16h43.57.575,Mental Fatigue Training Session,2020.2.4,MacIntel,60,,,,,,,,,,,,,,,,,,,,,d,,,,,,,,,,,,,,,,,,,,,,,,,,,,,,,,,,,,,,,,,,,,,,,,,,,,,,,d,1,1.633,0,8,8,39,1,23_50_R.jpg,50,,
1310.375,,,,,,,,Leah Curtis,2024-01-24_16h43.57.575,Mental Fatigue Training Session,2020.2.4,MacIntel,60,,,,,,,,,,,,,,,,,,,,,k,,,,,,,,,,,,,,,,,,,,,,,,,,,,,,,,,,,,,,,,,,,,,,,,,,,,,,,k,1,2.415,0,9,9,36,1,23_150.jpg,150,,
1315.009,,,,,,,,Leah Curtis,2024-01-24_16h43.57.575,Mental Fatigue Training Session,2020.2.4,MacIntel,60,,,,,,,,,,,,,,,,,,,,,d,,,,,,,,,,,,,,,,,,,,,,,,,,,,,,,,,,,,,,,,,,,,,,,,,,,,,,,d,1,2.317,0,10,10,91,1,48_100_R.jpg,100,,
1319.542,,,,,,,,Leah Curtis,2024-01-24_16h43.57.575,Mental Fatigue Training Session,2020.2.4,MacIntel,60,,,,,,,,,,,,,,,,,,,,,d,,,,,,,,,,,,,,,,,,,,,,,,,,,,,,,,,,,,,,,,,,,,,,,,,,,,,,,d,1,2.03,0,11,11,81,1,43_0_R.jpg,0,,
1323.792,,,,,,,,Leah Curtis,2024-01-24_16h43.57.575,Mental Fatigue Training Session,2020.2.4,MacIntel,60,,,,,,,,,,,,,,,,,,,,,d,,,,,,,,,,,,,,,,,,,,,,,,,,,,,,,,,,,,,,,,,,,,,,,,,,,,,,,d,1,1.966,0,12,12,45,1,25_150_R.jpg,150,,
1327.976,,,,,,,,Leah Curtis,2024-01-24_16h43.57.575,Mental Fatigue Training Session,2020.2.4,MacIntel,60,,,,,,,,,,,,,,,,,,,,,d,,,,,,,,,,,,,,,,,,,,,,,,,,,,,,,,,,,,,,,,,,,,,,,,,,,,,,,d,1,1.921,0,13,13,49,1,29_0_R.jpg,0,,
1332.109,,,,,,,,Leah Curtis,2024-01-24_16h43.57.575,Mental Fatigue Training Session,2020.2.4,MacIntel,60,,,,,,,,,,,,,,,,,,,,,k,,,,,,,,,,,,,,,,,,,,,,,,,,,,,,,,,,,,,,,,,,,,,,,,,,,,,,,k,1,1.835,0,14,14,94,1,48_50.jpg,50,,
1336.158,,,,,,,,Leah Curtis,2024-01-24_16h43.57.575,Mental Fatigue Training Session,2020.2.4,MacIntel,60,,,,,,,,,,,,,,,,,,,,,d,,,,,,,,,,,,,,,,,,,,,,,,,,,,,,,,,,,,,,,,,,,,,,,,,,,,,,,d,1,1.8,0,15,15,35,1,23_100_R.jpg,100,,
1340.175,,,,,,,,Leah Curtis,2024-01-24_16h43.57.575,Mental Fatigue Training Session,2020.2.4,MacIntel,60,,,,,,,,,,,,,,,,,,,,,d,,,,,,,,,,,,,,,,,,,,,,,,,,,,,,,,,,,,,,,,,,,,,,,,,,,,,,,d,1,2.068,0,16,16,7,1,1_50_R.jpg,50,,
1344.461,,,,,,,,Leah Curtis,2024-01-24_16h43.57.575,Mental Fatigue Training Session,2020.2.4,MacIntel,60,,,,,,,,,,,,,,,,,,,,,k,,,,,,,,,,,,,,,,,,,,,,,,,,,,,,,,,,,,,,,,,,,,,,,,,,,,,,,k,1,2.92,0,17,17,46,1,25_50.jpg,50,,
1349.608,,,,,,,,Leah Curtis,2024-01-24_16h43.57.575,Mental Fatigue Training Session,2020.2.4,MacIntel,60,,,,,,,,,,,,,,,,,,,,,k,,,,,,,,,,,,,,,,,,,,,,,,,,,,,,,,,,,,,,,,,,,,,,,,,,,,,,,k,1,1.267,0,18,18,16,1,19_0.jpg,0,,
1353.091,,,,,,,,Leah Curtis,2024-01-24_16h43.57.575,Mental Fatigue Training Session,2020.2.4,MacIntel,60,,,,,,,,,,,,,,,,,,,,,d,,,,,,,,,,,,,,,,,,,,,,,,,,,,,,,,,,,,,,,,,,,,,,,,,,,,,,,d,1,2.305,0,19,19,29,1,21_150_R.jpg,150,,
1357.608,,,,,,,,Leah Curtis,2024-01-24_16h43.57.575,Mental Fatigue Training Session,2020.2.4,MacIntel,60,,,,,,,,,,,,,,,,,,,,,d,,,,,,,,,,,,,,,,,,,,,,,,,,,,,,,,,,,,,,,,,,,,,,,,,,,,,,,d,1,1.327,0,20,20,73,1,39_0_R.jpg,0,,
1361.159,,,,,,,,Leah Curtis,2024-01-24_16h43.57.575,Mental Fatigue Training Session,2020.2.4,MacIntel,60,,,,,,,,,,,,,,,,,,,,,k,,,,,,,,,,,,,,,,,,,,,,,,,,,,,,,,,,,,,,,,,,,,,,,,,,,,,,,k,1,2.012,0,21,21,38,1,23_50.jpg,50,,
1365.392,,,,,,,,Leah Curtis,2024-01-24_16h43.57.575,Mental Fatigue Training Session,2020.2.4,MacIntel,60,,,,,,,,,,,,,,,,,,,,,k,,,,,,,,,,,,,,,,,,,,,,,,,,,,,,,,,,,,,,,,,,,,,,,,,,,,,,,k,1,2.268,0,22,22,74,1,39_100.jpg,100,,
1369.875,,,,,,,,Leah Curtis,2024-01-24_16h43.57.575,Mental Fatigue Training Session,2020.2.4,MacIntel,60,,,,,,,,,,,,,,,,,,,,,d,,,,,,,,,,,,,,,,,,,,,,,,,,,,,,,,,,,,,,,,,,,,,,,,,,,,,,,d,1,2.781,0,23,23,43,1,25_100_R.jpg,100,,
1374.875,,,,,,,,Leah Curtis,2024-01-24_16h43.57.575,Mental Fatigue Training Session,2020.2.4,MacIntel,60,,,,,,,,,,,,,,,,,,,,,d,,,,,,,,,,,,,,,,,,,,,,,,,,,,,,,,,,,,,,,,,,,,,,,,,,,,,,,d,1,1.831,0,24,24,85,1,43_150_R.jpg,150,,
1378.925,,,,,,,,Leah Curtis,2024-01-24_16h43.57.575,Mental Fatigue Training Session,2020.2.4,MacIntel,60,,,,,,,,,,,,,,,,,,,,,k,,,,,,,,,,,,,,,,,,,,,,,,,,,,,,,,,,,,,,,,,,,,,,,,,,,,,,,k,1,1.94,0,25,25,54,1,29_50.jpg,50,,
1383.075,,,,,,,,Leah Curtis,2024-01-24_16h43.57.575,Mental Fatigue Training Session,2020.2.4,MacIntel,60,,,,,,,,,,,,,,,,,,,,,d,,,,,,,,,,,,,,,,,,,,,,,,,,,,,,,,,,,,,,,,,,,,,,,,,,,,,,,d,1,2.294,0,26,26,71,1,31_50_R.jpg,50,,
1387.592,,,,,,,,Leah Curtis,2024-01-24_16h43.57.575,Mental Fatigue Training Session,2020.2.4,MacIntel,60,,,,,,,,,,,,,,,,,,,,,k,,,,,,,,,,,,,,,,,,,,,,,,,,,,,,,,,,,,,,,,,,,,,,,,,,,,,,,k,1,1.067,0,27,27,48,1,29_0.jpg,0,,
1390.875,,,,,,,,Leah Curtis,2024-01-24_16h43.57.575,Mental Fatigue Training Session,2020.2.4,MacIntel,60,,,,,,,,,,,,,,,,,,,,,k,,,,,,,,,,,,,,,,,,,,,,,,,,,,,,,,,,,,,,,,,,,,,,,,,,,,,,,k,1,1.701,0,28,28,6,1,1_50.jpg,50,,
1394.791,,,,,,,,Leah Curtis,2024-01-24_16h43.57.575,Mental Fatigue Training Session,2020.2.4,MacIntel,60,,,,,,,,,,,,,,,,,,,,,k,,,,,,,,,,,,,,,,,,,,,,,,,,,,,,,,,,,,,,,,,,,,,,,,,,,,,,,k,1,2.931,0,29,29,20,1,19_150.jpg,150,,
1399.94,,,,,,,,Leah Curtis,2024-01-24_16h43.57.575,Mental Fatigue Training Session,2020.2.4,MacIntel,60,,,,,,,,,,,,,,,,,,,,,d,,,,,,,,,,,,,,,,,,,,,,,,,,,,,,,,,,,,,,,,,,,,,,,,,,,,,,,d,1,1.337,0,30,30,63,1,30_50_R.jpg,50,,
1403.491,,,,,,,,Leah Curtis,2024-01-24_16h43.57.575,Mental Fatigue Training Session,2020.2.4,MacIntel,60,,,,,,,,,,,,,,,,,,,,,k,,,,,,,,,,,,,,,,,,,,,,,,,,,,,,,,,,,,,,,,,,,,,,,,,,,,,,,k,1,1.405,0,31,31,40,1,25_0.jpg,0,,
1407.108,,,,,,,,Leah Curtis,2024-01-24_16h43.57.575,Mental Fatigue Training Session,2020.2.4,MacIntel,60,,,,,,,,,,,,,,,,,,,,,d,,,,,,,,,,,,,,,,,,,,,,,,,,,,,,,,,,,,,,,,,,,,,,,,,,,,,,,d,1,1.234,0,32,32,83,1,43_100_R.jpg,100,,
1410.558,,,,,,,,Leah Curtis,2024-01-24_16h43.57.575,Mental Fatigue Training Session,2020.2.4,MacIntel,60,,,,,,,,,,,,,,,,,,,,,d,,,,,,,,,,,,,,,,,,,,,,,,,,,,,,,,,,,,,,,,,,,,,,,,,,,,,,,d,1,1.861,0,33,33,65,1,31_0_R.jpg,0,,
1414.641,,,,,,,,Leah Curtis,2024-01-24_16h43.57.575,Mental Fatigue Training Session,2020.2.4,MacIntel,60,,,,,,,,,,,,,,,,,,,,,k,,,,,,,,,,,,,,,,,,,,,,,,,,,,,,,,,,,,,,,,,,,,,,,,,,,,,,,k,1,1.447,0,34,34,22,1,19_50.jpg,50,,
1418.307,,,,,,,,Leah Curtis,2024-01-24_16h43.57.575,Mental Fatigue Training Session,2020.2.4,MacIntel,60,,,,,,,,,,,,,,,,,,,,,d,,,,,,,,,,,,,,,,,,,,,,,,,,,,,,,,,,,,,,,,,,,,,,,,,,,,,,,d,1,1.601,0,35,35,3,1,1_100_R.jpg,100,,
1422.124,,,,,,,,Leah Curtis,2024-01-24_16h43.57.575,Mental Fatigue Training Session,2020.2.4,MacIntel,60,,,,,,,,,,,,,,,,,,,,,k,,,,,,,,,,,,,,,,,,,,,,,,,,,,,,,,,,,,,,,,,,,,,,,,,,,,,,,k,1,2.653,0,36,36,70,1,31_50.jpg,50,,
1426.99,,,,,,,,Leah Curtis,2024-01-24_16h43.57.575,Mental Fatigue Training Session,2020.2.4,MacIntel,60,,,,,,,,,,,,,,,,,,,,,k,,,,,,,,,,,,,,,,,,,,,,,,,,,,,,,,,,,,,,,,,,,,,,,,,,,,,,,k,1,2.349,0,37,37,44,1,25_150.jpg,150,,
1431.557,,,,,,,,Leah Curtis,2024-01-24_16h43.57.575,Mental Fatigue Training Session,2020.2.4,MacIntel,60,,,,,,,,,,,,,,,,,,,,,d,,,,,,,,,,,,,,,,,,,,,,,,,,,,,,,,,,,,,,,,,,,,,,,,,,,,,,,d,1,1.804,0,38,38,93,1,48_150_R.jpg,150,,
1435.574,,,,,,,,Leah Curtis,2024-01-24_16h43.57.575,Mental Fatigue Training Session,2020.2.4,MacIntel,60,,,,,,,,,,,,,,,,,,,,,d,,,,,,,,,,,,,,,,,,,,,,,,,,,,,,,,,,,,,,,,,,,,,,,,,,,,,,,d,1,1.716,0,39,39,75,1,39_100_R.jpg,100,,
1439.507,,,,,,,,Leah Curtis,2024-01-24_16h43.57.575,Mental Fatigue Training Session,2020.2.4,MacIntel,60,,,,,,,,,,,,,,,,,,,,,k,,,,,,,,,,,,,,,,,,,,,,,,,,,,,,,,,,,,,,,,,,,,,,,,,,,,,,,k,1,2.463,0,40,40,92,1,48_150.jpg,150,,
1444.191,,,,,,,,Leah Curtis,2024-01-24_16h43.57.575,Mental Fatigue Training Session,2020.2.4,MacIntel,60,,,,,,,,,,,,,,,,,,,,,d,,,,,,,,,,,,,,,,,,,,,,,,,,,,,,,,,,,,,,,,,,,,,,,,,,,,,,,d,1,2.148,0,41,41,37,1,23_150_R.jpg,150,,
1448.556,,,,,,,,Leah Curtis,2024-01-24_16h43.57.575,Mental Fatigue Training Session,2020.2.4,MacIntel,60,,,,,,,,,,,,,,,,,,,,,d,,,,,,,,,,,,,,,,,,,,,,,,,,,,,,,,,,,,,,,,,,,,,,,,,,,,,,,d,1,2.231,0,42,42,79,1,39_50_R.jpg,50,,
1453.007,,,,,,,,Leah Curtis,2024-01-24_16h43.57.575,Mental Fatigue Training Session,2020.2.4,MacIntel,60,,,,,,,,,,,,,,,,,,,,,d,,,,,,,,,,,,,,,,,,,,,,,,,,,,,,,,,,,,,,,,,,,,,,,,,,,,,,,k,0,1.779,0,43,43,23,1,19_50_R.jpg,50,,
1457.006,,,,,,,,Leah Curtis,2024-01-24_16h43.57.575,Mental Fatigue Training Session,2020.2.4,MacIntel,60,,,,,,,,,,,,,,,,,,,,,d,,,,,,,,,,,,,,,,,,,,,,,,,,,,,,,,,,,,,,,,,,,,,,,,,,,,,,,d,1,2.585,0,44,44,61,1,30_150_R.jpg,150,,
1461.807,,,,,,,,Leah Curtis,2024-01-24_16h43.57.575,Mental Fatigue Training Session,2020.2.4,MacIntel,60,,,,,,,,,,,,,,,,,,,,,k,,,,,,,,,,,,,,,,,,,,,,,,,,,,,,,,,,,,,,,,,,,,,,,,,,,,,,,k,1,1.912,0,45,45,50,1,29_100.jpg,100,,
1465.94,,,,,,,,Leah Curtis,2024-01-24_16h43.57.575,Mental Fatigue Training Session,2020.2.4,MacIntel,60,,,,,,,,,,,,,,,,,,,,,k,,,,,,,,,,,,,,,,,,,,,,,,,,,,,,,,,,,,,,,,,,,,,,,,,,,,,,,k,1,1.914,0,46,46,82,1,43_100.jpg,100,,
1470.073,,,,,,,,Leah Curtis,2024-01-24_16h43.57.575,Mental Fatigue Training Session,2020.2.4,MacIntel,60,,,,,,,,,,,,,,,,,,,,,k,,,,,,,,,,,,,,,,,,,,,,,,,,,,,,,,,,,,,,,,,,,,,,,,,,,,,,,k,1,1.964,0,47,47,10,1,8_100.jpg,100,,
1474.257,,,,,,,,Leah Curtis,2024-01-24_16h43.57.575,Mental Fatigue Training Session,2020.2.4,MacIntel,60,,,,,,,,,,,,,,,,,,,,,k,,,,,,,,,,,,,,,,,,,,,,,,,,,,,,,,,,,,,,,,,,,,,,,,,,,,,,,k,1,1.382,0,48,48,58,1,30_100.jpg,100,,
1477.856,,,,,,,,Leah Curtis,2024-01-24_16h43.57.575,Mental Fatigue Training Session,2020.2.4,MacIntel,60,,,,,,,,,,,,,,,,,,,,,k,,,,,,,,,,,,,,,,,,,,,,,,,,,,,,,,,,,,,,,,,,,,,,,,,,,,,,,k,1,0.901,0,49,49,14,1,8_50.jpg,50,,
1480.974,,,,,,,,Leah Curtis,2024-01-24_16h43.57.575,Mental Fatigue Training Session,2020.2.4,MacIntel,60,,,,,,,,,,,,,,,,,,,,,k,,,,,,,,,,,,,,,,,,,,,,,,,,,,,,,,,,,,,,,,,,,,,,,,,,,,,,,k,1,1.756,0,50,50,4,1,1_150.jpg,150,,
1484.94,,,,,,,,Leah Curtis,2024-01-24_16h43.57.575,Mental Fatigue Training Session,2020.2.4,MacIntel,60,,,,,,,,,,,,,,,,,,,,,k,,,,,,,,,,,,,,,,,,,,,,,,,,,,,,,,,,,,,,,,,,,,,,,,,,,,,,,k,1,0.894,0,51,51,8,1,8_0.jpg,0,,
1488.057,,,,,,,,Leah Curtis,2024-01-24_16h43.57.575,Mental Fatigue Training Session,2020.2.4,MacIntel,60,,,,,,,,,,,,,,,,,,,,,k,,,,,,,,,,,,,,,,,,,,,,,,,,,,,,,,,,,,,,,,,,,,,,,,,,,,,,,k,1,0.715,0,52,52,32,1,23_0.jpg,0,,
1490.99,,,,,,,,Leah Curtis,2024-01-24_16h43.57.575,Mental Fatigue Training Session,2020.2.4,MacIntel,60,,,,,,,,,,,,,,,,,,,,,k,,,,,,,,,,,,,,,,,,,,,,,,,,,,,,,,,,,,,,,,,,,,,,,,,,,,,,,k,1,1.161,0,53,53,78,1,39_50.jpg,50,,
1494.373,,,,,,,,Leah Curtis,2024-01-24_16h43.57.575,Mental Fatigue Training Session,2020.2.4,MacIntel,60,,,,,,,,,,,,,,,,,,,,,d,,,,,,,,,,,,,,,,,,,,,,,,,,,,,,,,,,,,,,,,,,,,,,,,,,,,,,,d,1,1.581,0,54,54,95,1,48_50_R.jpg,50,,
1498.172,,,,,,,,Leah Curtis,2024-01-24_16h43.57.575,Mental Fatigue Training Session,2020.2.4,MacIntel,60,,,,,,,,,,,,,,,,,,,,,k,,,,,,,,,,,,,,,,,,,,,,,,,,,,,,,,,,,,,,,,,,,,,,,,,,,,,,,d,0,1.846,0,55,55,42,1,25_100.jpg,100,,
1502.24,,,,,,,,Leah Curtis,2024-01-24_16h43.57.575,Mental Fatigue Training Session,2020.2.4,MacIntel,60,,,,,,,,,,,,,,,,,,,,,d,,,,,,,,,,,,,,,,,,,,,,,,,,,,,,,,,,,,,,,,,,,,,,,,,,,,,,,d,1,1.18,0,56,56,21,1,19_150_R.jpg,150,,
1505.64,,,,,,,,Leah Curtis,2024-01-24_16h43.57.575,Mental Fatigue Training Session,2020.2.4,MacIntel,60,,,,,,,,,,,,,,,,,,,,,d,,,,,,,,,,,,,,,,,,,,,,,,,,,,,,,,,,,,,,,,,,,,,,,,,,,,,,,k,0,1.332,0,57,57,1,1,1_0_R.jpg,0,,
1509.19,,,,,,,,Leah Curtis,2024-01-24_16h43.57.575,Mental Fatigue Training Session,2020.2.4,MacIntel,60,,,,,,,,,,,,,,,,,,,,,k,,,,,,,,,,,,,,,,,,,,,,,,,,,,,,,,,,,,,,,,,,,,,,,,,,,,,,,k,1,2.247,0,58,58,76,1,39_150.jpg,150,,
1513.657,,,,,,,,Leah Curtis,2024-01-24_16h43.57.575,Mental Fatigue Training Session,2020.2.4,MacIntel,60,,,,,,,,,,,,,,,,,,,,,d,,,,,,,,,,,,,,,,,,,,,,,,,,,,,,,,,,,,,,,,,,,,,,,,,,,,,,,d,1,1.25,0,59,59,67,1,31_100_R.jpg,100,,
1517.123,,,,,,,,Leah Curtis,2024-01-24_16h43.57.575,Mental Fatigue Training Session,2020.2.4,MacIntel,60,,,,,,,,,,,,,,,,,,,,,d,,,,,,,,,,,,,,,,,,,,,,,,,,,,,,,,,,,,,,,,,,,,,,,,,,,,,,,k,0,1.666,0,60,60,53,1,29_150_R.jpg,150,,
1521.006,,,,,,,,Leah Curtis,2024-01-24_16h43.57.575,Mental Fatigue Training Session,2020.2.4,MacIntel,60,,,,,,,,,,,,,,,,,,,,,k,,,,,,,,,,,,,,,,,,,,,,,,,,,,,,,,,,,,,,,,,,,,,,,,,,,,,,,d,0,1.78,0,61,61,68,1,31_150.jpg,150,,
1525.006,,,,,,,,Leah Curtis,2024-01-24_16h43.57.575,Mental Fatigue Training Session,2020.2.4,MacIntel,60,,,,,,,,,,,,,,,,,,,,,k,,,,,,,,,,,,,,,,,,,,,,,,,,,,,,,,,,,,,,,,,,,,,,,,,,,,,,,k,1,1.414,0,62,62,56,1,30_0.jpg,0,,
1528.639,,,,,,,,Leah Curtis,2024-01-24_16h43.57.575,Mental Fatigue Training Session,2020.2.4,MacIntel,60,,,,,,,,,,,,,,,,,,,,,d,,,,,,,,,,,,,,,,,,,,,,,,,,,,,,,,,,,,,,,,,,,,,,,,,,,,,,,d,1,1.262,0,63,63,25,1,21_0_R.jpg,0,,
1532.123,,,,,,,,Leah Curtis,2024-01-24_16h43.57.575,Mental Fatigue Training Session,2020.2.4,MacIntel,60,,,,,,,,,,,,,,,,,,,,,d,,,,,,,,,,,,,,,,,,,,,,,,,,,,,,,,,,,,,,,,,,,,,,,,,,,,,,,d,1,1.937,0,64,64,87,1,43_50_R.jpg,50,,
1536.273,,,,,,,,Leah Curtis,2024-01-24_16h43.57.575,Mental Fatigue Training Session,2020.2.4,MacIntel,60,,,,,,,,,,,,,,,,,,,,,k,,,,,,,,,,,,,,,,,,,,,,,,,,,,,,,,,,,,,,,,,,,,,,,,,,,,,,,k,1,2.95,0,65,65,34,1,23_100.jpg,100,,
1541.439,,,,,,,,Leah Curtis,2024-01-24_16h43.57.575,Mental Fatigue Training Session,2020.2.4,MacIntel,60,,,,,,,,,,,,,,,,,,,,,k,,,,,,,,,,,,,,,,,,,,,,,,,,,,,,,,,,,,,,,,,,,,,,,,,,,,,,,k,1,0.885,0,66,66,88,1,48_0.jpg,0,,
1544.54,,,,,,,,Leah Curtis,2024-01-24_16h43.57.575,Mental Fatigue Training Session,2020.2.4,MacIntel,60,,,,,,,,,,,,,,,,,,,,,d,,,,,,,,,,,,,,,,,,,,,,,,,,,,,,,,,,,,,,,,,,,,,,,,,,,,,,,d,1,1.628,0,67,67,89,1,48_0_R.jpg,0,,
1548.388,,,,,,,,Leah Curtis,2024-01-24_16h43.57.575,Mental Fatigue Training Session,2020.2.4,MacIntel,60,,,,,,,,,,,,,,,,,,,,,k,,,,,,,,,,,,,,,,,,,,,,,,,,,,,,,,,,,,,,,,,,,,,,,,,,,,,,,k,1,1.248,0,68,68,80,1,43_0.jpg,0,,
1551.856,,,,,,,,Leah Curtis,2024-01-24_16h43.57.575,Mental Fatigue Training Session,2020.2.4,MacIntel,60,,,,,,,,,,,,,,,,,,,,,d,,,,,,,,,,,,,,,,,,,,,,,,,,,,,,,,,,,,,,,,,,,,,,,,,,,,,,,d,1,3.148,0,69,69,77,1,39_150_R.jpg,150,,
1557.223,,,,,,,,Leah Curtis,2024-01-24_16h43.57.575,Mental Fatigue Training Session,2020.2.4,MacIntel,60,,,,,,,,,,,,,,,,,,,,,d,,,,,,,,,,,,,,,,,,,,,,,,,,,,,,,,,,,,,,,,,,,,,,,,,,,,,,,d,1,1.829,0,70,70,27,1,21_100_R.jpg,100,,
1561.273,,,,,,,,Leah Curtis,2024-01-24_16h43.57.575,Mental Fatigue Training Session,2020.2.4,MacIntel,60,,,,,,,,,,,,,,,,,,,,,d,,,,,,,,,,,,,,,,,,,,,,,,,,,,,,,,,,,,,,,,,,,,,,,,,,,,,,,d,1,1.162,0,71,71,33,1,23_0_R.jpg,0,,
1564.656,,,,,,,,Leah Curtis,2024-01-24_16h43.57.575,Mental Fatigue Training Session,2020.2.4,MacIntel,60,,,,,,,,,,,,,,,,,,,,,d,,,,,,,,,,,,,,,,,,,,,,,,,,,,,,,,,,,,,,,,,,,,,,,,,,,,,,,d,1,2.168,0,72,72,9,1,8_0_R.jpg,0,,
1569.039,,,,,,,,Leah Curtis,2024-01-24_16h43.57.575,Mental Fatigue Training Session,2020.2.4,MacIntel,60,,,,,,,,,,,,,,,,,,,,,k,,,,,,,,,,,,,,,,,,,,,,,,,,,,,,,,,,,,,,,,,,,,,,,,,,,,,,,k,1,1.701,0,73,73,2,1,1_100.jpg,100,,
1572.96,,,,,,,,Leah Curtis,2024-01-24_16h43.57.575,Mental Fatigue Training Session,2020.2.4,MacIntel,60,,,,,,,,,,,,,,,,,,,,,k,,,,,,,,,,,,,,,,,,,,,,,,,,,,,,,,,,,,,,,,,,,,,,,,,,,,,,,k,1,1.556,0,74,74,18,1,19_100.jpg,100,,
1580.939,,,,,,,,Leah Curtis,2024-01-24_16h43.57.575,Mental Fatigue Training Session,2020.2.4,MacIntel,60,,,,,,,,,,,,,,,,,,,,,,,,,,,,,,,,,,,,,,,,,,,,,,,,,,,,,,,,,,,,,,,,,,,,,,,,,,,,,,,,,,,,,,space,5.378
