elapsed.time,key_resp.keys,key_resp.rt,instrLoop.thisRepN,instrLoop.thisTrialN,instrLoop.thisN,instrLoop.thisIndex,instrLoop.ran,participant,date,expName,psychopyVersion,OS,frameRate,key_resp_2.keys,key_resp_2.rt,instrAXCPTLoop.thisRepN,instrAXCPTLoop.thisTrialN,instrAXCPTLoop.thisN,instrAXCPTLoop.thisIndex,instrAXCPTLoop.ran,AXCPT_resp.keys,AXCPT_resp.corr,AXCPT_resp.rt,AXCPTtrialsLoop.thisRepN,AXCPTtrialsLoop.thisTrialN,AXCPTtrialsLoop.thisN,AXCPTtrialsLoop.thisIndex,AXCPTtrialsLoop.ran,trialNumber,trial,cueType,probeType,trialType,corrResponse,break1.duration,restBreak1_key_resp.keys,restBreak1_key_resp.rt,key_resp_3.keys,key_resp_3.rt,instrNBackLoop.thisRepN,instrNBackLoop.thisTrialN,instrNBackLoop.thisN,instrNBackLoop.thisIndex,instrNBackLoop.ran,NBack_resp_1.keys,NBackTargetLoop.thisRepN,NBackTargetLoop.thisTrialN,NBackTargetLoop.thisN,NBackTargetLoop.thisIndex,NBackTargetLoop.ran,NBack_resp_2.keys,NBack_resp_2.corr,NBack_resp_2.rt,NBackTrialsLoop.thisRepN,NBackTrialsLoop.thisTrialN,NBackTrialsLoop.thisN,NBackTrialsLoop.thisIndex,NBackTrialsLoop.ran,break2.duration,restBreak2_key_resp.keys,restBreak2_key_resp.rt,key_resp_4.keys,key_resp_4.rt,instrSearchLoop.thisRepN,instrSearchLoop.thisTrialN,instrSearchLoop.thisN,instrSearchLoop.thisIndex,instrSearchLoop.ran,key_resp_6.keys,key_resp_6.corr,key_resp_6.rt,searchLoop.thisRepN,searchLoop.thisTrialN,searchLoop.thisN,searchLoop.thisIndex,searchLoop.ran,cond,targetLetter,break3.duration,restBreak3_key_resp.keys,restBreak3_key_resp.rt,key_resp_5.keys,key_resp_5.rt,instrMentRotaLoop.thisRepN,instrMentRotaLoop.thisTrialN,instrMentRotaLoop.thisN,instrMentRotaLoop.thisIndex,instrMentRotaLoop.ran,MROT_resp.keys,MROT_resp.corr,MROT_resp.rt,mentRotTrialsLooop.thisRepN,mentRotTrialsLooop.thisTrialN,mentRotTrialsLooop.thisN,mentRotTrialsLooop.thisIndex,mentRotTrialsLooop.ran,imagefile,orientation,end_resp.keys,end_resp.rt
14.9015,right,14.4561,0,0,0,0,1,lucy_pilot,2024-01-11_13h48.10.726,Mental Fatigue Training Session,2020.2.4,MacIntel,60,,,,,,,,,,,,,,,,,,,,,,,,,,,,,,,,,,,,,,,,,,,,,,,,,,,,,,,,,,,,,,,,,,,,,,,,,,,,,,,,,,,,,,,
48.4974,right,33.5673,1,0,1,0,1,lucy_pilot,2024-01-11_13h48.10.726,Mental Fatigue Training Session,2020.2.4,MacIntel,60,,,,,,,,,,,,,,,,,,,,,,,,,,,,,,,,,,,,,,,,,,,,,,,,,,,,,,,,,,,,,,,,,,,,,,,,,,,,,,,,,,,,,,,
53.8489,right,5.3288,2,0,2,0,1,lucy_pilot,2024-01-11_13h48.10.726,Mental Fatigue Training Session,2020.2.4,MacIntel,60,,,,,,,,,,,,,,,,,,,,,,,,,,,,,,,,,,,,,,,,,,,,,,,,,,,,,,,,,,,,,,,,,,,,,,,,,,,,,,,,,,,,,,,
66.8631,,,,,,,,lucy_pilot,2024-01-11_13h48.10.726,Mental Fatigue Training Session,2020.2.4,MacIntel,60,right,12.9905,0,0,0,0,1,,,,,,,,,,,,,,,,,,,,,,,,,,,,,,,,,,,,,,,,,,,,,,,,,,,,,,,,,,,,,,,,,,,,,,,,,,,,,,,,
80.9067,,,,,,,,lucy_pilot,2024-01-11_13h48.10.726,Mental Fatigue Training Session,2020.2.4,MacIntel,60,right,14.0186,1,0,1,0,1,,,,,,,,,,,,,,,,,,,,,,,,,,,,,,,,,,,,,,,,,,,,,,,,,,,,,,,,,,,,,,,,,,,,,,,,,,,,,,,,
94.8815,,,,,,,,lucy_pilot,2024-01-11_13h48.10.726,Mental Fatigue Training Session,2020.2.4,MacIntel,60,k,13.9546,2,0,2,0,1,,,,,,,,,,,,,,,,,,,,,,,,,,,,,,,,,,,,,,,,,,,,,,,,,,,,,,,,,,,,,,,,,,,,,,,,,,,,,,,,
96.1057,,,,,,,,lucy_pilot,2024-01-11_13h48.10.726,Mental Fatigue Training Session,2020.2.4,MacIntel,60,,,,,,,,d,1,0.3737,0,0,0,9,1,10,BY,B,Y,bothWrong,d,,,,,,,,,,,,,,,,,,,,,,,,,,,,,,,,,,,,,,,,,,,,,,,,,,,,,,,,,,,,,,,,,,
103.1926,,,,,,,,lucy_pilot,2024-01-11_13h48.10.726,Mental Fatigue Training Session,2020.2.4,MacIntel,60,,,,,,,,k,1,0.4095,0,1,1,0,1,1,AX,A,X,target,k,,,,,,,,,,,,,,,,,,,,,,,,,,,,,,,,,,,,,,,,,,,,,,,,,,,,,,,,,,,,,,,,,,
110.3305,,,,,,,,lucy_pilot,2024-01-11_13h48.10.726,Mental Fatigue Training Session,2020.2.4,MacIntel,60,,,,,,,,d,0,0.5707,0,2,2,3,1,4,AX,A,X,target,k,,,,,,,,,,,,,,,,,,,,,,,,,,,,,,,,,,,,,,,,,,,,,,,,,,,,,,,,,,,,,,,,,,
117.6376,,,,,,,,lucy_pilot,2024-01-11_13h48.10.726,Mental Fatigue Training Session,2020.2.4,MacIntel,60,,,,,,,,d,1,0.6945,0,3,3,7,1,8,BX,B,X,probeWrong,d,,,,,,,,,,,,,,,,,,,,,,,,,,,,,,,,,,,,,,,,,,,,,,,,,,,,,,,,,,,,,,,,,,
125.0753,,,,,,,,lucy_pilot,2024-01-11_13h48.10.726,Mental Fatigue Training Session,2020.2.4,MacIntel,60,,,,,,,,k,1,0.5922,0,4,4,1,1,2,AX,A,X,target,k,,,,,,,,,,,,,,,,,,,,,,,,,,,,,,,,,,,,,,,,,,,,,,,,,,,,,,,,,,,,,,,,,,
132.4048,,,,,,,,lucy_pilot,2024-01-11_13h48.10.726,Mental Fatigue Training Session,2020.2.4,MacIntel,60,,,,,,,,k,1,0.6821,0,5,5,6,1,7,AX,A,X,target,k,,,,,,,,,,,,,,,,,,,,,,,,,,,,,,,,,,,,,,,,,,,,,,,,,,,,,,,,,,,,,,,,,,
139.8244,,,,,,,,lucy_pilot,2024-01-11_13h48.10.726,Mental Fatigue Training Session,2020.2.4,MacIntel,60,,,,,,,,k,1,0.3769,0,6,6,5,1,6,AX,A,X,target,k,,,,,,,,,,,,,,,,,,,,,,,,,,,,,,,,,,,,,,,,,,,,,,,,,,,,,,,,,,,,,,,,,,
146.9471,,,,,,,,lucy_pilot,2024-01-11_13h48.10.726,Mental Fatigue Training Session,2020.2.4,MacIntel,60,,,,,,,,k,1,0.4446,0,7,7,4,1,5,AX,A,X,target,k,,,,,,,,,,,,,,,,,,,,,,,,,,,,,,,,,,,,,,,,,,,,,,,,,,,,,,,,,,,,,,,,,,
154.1011,,,,,,,,lucy_pilot,2024-01-11_13h48.10.726,Mental Fatigue Training Session,2020.2.4,MacIntel,60,,,,,,,,d,1,0.8275,0,8,8,8,1,9,AY,A,Y,cueWrong,d,,,,,,,,,,,,,,,,,,,,,,,,,,,,,,,,,,,,,,,,,,,,,,,,,,,,,,,,,,,,,,,,,,
161.6559,,,,,,,,lucy_pilot,2024-01-11_13h48.10.726,Mental Fatigue Training Session,2020.2.4,MacIntel,60,,,,,,,,k,1,0.4705,0,9,9,2,1,3,AX,A,X,target,k,,,,,,,,,,,,,,,,,,,,,,,,,,,,,,,,,,,,,,,,,,,,,,,,,,,,,,,,,,,,,,,,,,
168.8806,,,,,,,,lucy_pilot,2024-01-11_13h48.10.726,Mental Fatigue Training Session,2020.2.4,MacIntel,60,,,,,,,,k,1,0.5557,1,0,10,6,1,7,AX,A,X,target,k,,,,,,,,,,,,,,,,,,,,,,,,,,,,,,,,,,,,,,,,,,,,,,,,,,,,,,,,,,,,,,,,,,
176.1693,,,,,,,,lucy_pilot,2024-01-11_13h48.10.726,Mental Fatigue Training Session,2020.2.4,MacIntel,60,,,,,,,,k,1,0.4623,1,1,11,1,1,2,AX,A,X,target,k,,,,,,,,,,,,,,,,,,,,,,,,,,,,,,,,,,,,,,,,,,,,,,,,,,,,,,,,,,,,,,,,,,
183.3616,,,,,,,,lucy_pilot,2024-01-11_13h48.10.726,Mental Fatigue Training Session,2020.2.4,MacIntel,60,,,,,,,,k,1,0.3786,1,2,12,3,1,4,AX,A,X,target,k,,,,,,,,,,,,,,,,,,,,,,,,,,,,,,,,,,,,,,,,,,,,,,,,,,,,,,,,,,,,,,,,,,
190.4678,,,,,,,,lucy_pilot,2024-01-11_13h48.10.726,Mental Fatigue Training Session,2020.2.4,MacIntel,60,,,,,,,,d,1,0.66,1,3,13,9,1,10,BY,B,Y,bothWrong,d,,,,,,,,,,,,,,,,,,,,,,,,,,,,,,,,,,,,,,,,,,,,,,,,,,,,,,,,,,,,,,,,,,
197.8554,,,,,,,,lucy_pilot,2024-01-11_13h48.10.726,Mental Fatigue Training Session,2020.2.4,MacIntel,60,,,,,,,,k,1,0.2749,1,4,14,2,1,3,AX,A,X,target,k,,,,,,,,,,,,,,,,,,,,,,,,,,,,,,,,,,,,,,,,,,,,,,,,,,,,,,,,,,,,,,,,,,
204.8597,,,,,,,,lucy_pilot,2024-01-11_13h48.10.726,Mental Fatigue Training Session,2020.2.4,MacIntel,60,,,,,,,,k,1,0.3197,1,5,15,0,1,1,AX,A,X,target,k,,,,,,,,,,,,,,,,,,,,,,,,,,,,,,,,,,,,,,,,,,,,,,,,,,,,,,,,,,,,,,,,,,
211.897,,,,,,,,lucy_pilot,2024-01-11_13h48.10.726,Mental Fatigue Training Session,2020.2.4,MacIntel,60,,,,,,,,d,1,0.6238,1,6,16,7,1,8,BX,B,X,probeWrong,d,,,,,,,,,,,,,,,,,,,,,,,,,,,,,,,,,,,,,,,,,,,,,,,,,,,,,,,,,,,,,,,,,,
219.2727,,,,,,,,lucy_pilot,2024-01-11_13h48.10.726,Mental Fatigue Training Session,2020.2.4,MacIntel,60,,,,,,,,k,1,0.4253,1,7,17,4,1,5,AX,A,X,target,k,,,,,,,,,,,,,,,,,,,,,,,,,,,,,,,,,,,,,,,,,,,,,,,,,,,,,,,,,,,,,,,,,,
226.4129,,,,,,,,lucy_pilot,2024-01-11_13h48.10.726,Mental Fatigue Training Session,2020.2.4,MacIntel,60,,,,,,,,d,0,0.4116,1,8,18,5,1,6,AX,A,X,target,k,,,,,,,,,,,,,,,,,,,,,,,,,,,,,,,,,,,,,,,,,,,,,,,,,,,,,,,,,,,,,,,,,,
233.5518,,,,,,,,lucy_pilot,2024-01-11_13h48.10.726,Mental Fatigue Training Session,2020.2.4,MacIntel,60,,,,,,,,d,1,0.4275,1,9,19,8,1,9,AY,A,Y,cueWrong,d,,,,,,,,,,,,,,,,,,,,,,,,,,,,,,,,,,,,,,,,,,,,,,,,,,,,,,,,,,,,,,,,,,
240.7089,,,,,,,,lucy_pilot,2024-01-11_13h48.10.726,Mental Fatigue Training Session,2020.2.4,MacIntel,60,,,,,,,,k,1,0.3795,2,0,20,0,1,1,AX,A,X,target,k,,,,,,,,,,,,,,,,,,,,,,,,,,,,,,,,,,,,,,,,,,,,,,,,,,,,,,,,,,,,,,,,,,
247.8293,,,,,,,,lucy_pilot,2024-01-11_13h48.10.726,Mental Fatigue Training Session,2020.2.4,MacIntel,60,,,,,,,,d,1,0.5935,2,1,21,9,1,10,BY,B,Y,bothWrong,d,,,,,,,,,,,,,,,,,,,,,,,,,,,,,,,,,,,,,,,,,,,,,,,,,,,,,,,,,,,,,,,,,,
255.1345,,,,,,,,lucy_pilot,2024-01-11_13h48.10.726,Mental Fatigue Training Session,2020.2.4,MacIntel,60,,,,,,,,k,0,0.311,2,2,22,8,1,9,AY,A,Y,cueWrong,d,,,,,,,,,,,,,,,,,,,,,,,,,,,,,,,,,,,,,,,,,,,,,,,,,,,,,,,,,,,,,,,,,,
262.1724,,,,,,,,lucy_pilot,2024-01-11_13h48.10.726,Mental Fatigue Training Session,2020.2.4,MacIntel,60,,,,,,,,k,1,0.4081,2,3,23,6,1,7,AX,A,X,target,k,,,,,,,,,,,,,,,,,,,,,,,,,,,,,,,,,,,,,,,,,,,,,,,,,,,,,,,,,,,,,,,,,,
269.3307,,,,,,,,lucy_pilot,2024-01-11_13h48.10.726,Mental Fatigue Training Session,2020.2.4,MacIntel,60,,,,,,,,d,1,0.5279,2,4,24,7,1,8,BX,B,X,probeWrong,d,,,,,,,,,,,,,,,,,,,,,,,,,,,,,,,,,,,,,,,,,,,,,,,,,,,,,,,,,,,,,,,,,,
276.5871,,,,,,,,lucy_pilot,2024-01-11_13h48.10.726,Mental Fatigue Training Session,2020.2.4,MacIntel,60,,,,,,,,d,0,0.5613,2,5,25,3,1,4,AX,A,X,target,k,,,,,,,,,,,,,,,,,,,,,,,,,,,,,,,,,,,,,,,,,,,,,,,,,,,,,,,,,,,,,,,,,,
283.8774,,,,,,,,lucy_pilot,2024-01-11_13h48.10.726,Mental Fatigue Training Session,2020.2.4,MacIntel,60,,,,,,,,k,1,0.3796,2,6,26,5,1,6,AX,A,X,target,k,,,,,,,,,,,,,,,,,,,,,,,,,,,,,,,,,,,,,,,,,,,,,,,,,,,,,,,,,,,,,,,,,,
290.9801,,,,,,,,lucy_pilot,2024-01-11_13h48.10.726,Mental Fatigue Training Session,2020.2.4,MacIntel,60,,,,,,,,k,1,0.3619,2,7,27,4,1,5,AX,A,X,target,k,,,,,,,,,,,,,,,,,,,,,,,,,,,,,,,,,,,,,,,,,,,,,,,,,,,,,,,,,,,,,,,,,,
298.0719,,,,,,,,lucy_pilot,2024-01-11_13h48.10.726,Mental Fatigue Training Session,2020.2.4,MacIntel,60,,,,,,,,k,1,0.4774,2,8,28,2,1,3,AX,A,X,target,k,,,,,,,,,,,,,,,,,,,,,,,,,,,,,,,,,,,,,,,,,,,,,,,,,,,,,,,,,,,,,,,,,,
305.2587,,,,,,,,lucy_pilot,2024-01-11_13h48.10.726,Mental Fatigue Training Session,2020.2.4,MacIntel,60,,,,,,,,k,1,0.4124,2,9,29,1,1,2,AX,A,X,target,k,,,,,,,,,,,,,,,,,,,,,,,,,,,,,,,,,,,,,,,,,,,,,,,,,,,,,,,,,,,,,,,,,,
312.396,,,,,,,,lucy_pilot,2024-01-11_13h48.10.726,Mental Fatigue Training Session,2020.2.4,MacIntel,60,,,,,,,,k,1,0.3651,3,0,30,6,1,7,AX,A,X,target,k,,,,,,,,,,,,,,,,,,,,,,,,,,,,,,,,,,,,,,,,,,,,,,,,,,,,,,,,,,,,,,,,,,
319.4879,,,,,,,,lucy_pilot,2024-01-11_13h48.10.726,Mental Fatigue Training Session,2020.2.4,MacIntel,60,,,,,,,,k,1,0.3491,3,1,31,0,1,1,AX,A,X,target,k,,,,,,,,,,,,,,,,,,,,,,,,,,,,,,,,,,,,,,,,,,,,,,,,,,,,,,,,,,,,,,,,,,
326.5788,,,,,,,,lucy_pilot,2024-01-11_13h48.10.726,Mental Fatigue Training Session,2020.2.4,MacIntel,60,,,,,,,,d,1,0.327,3,2,32,8,1,9,AY,A,Y,cueWrong,d,,,,,,,,,,,,,,,,,,,,,,,,,,,,,,,,,,,,,,,,,,,,,,,,,,,,,,,,,,,,,,,,,,
333.617,,,,,,,,lucy_pilot,2024-01-11_13h48.10.726,Mental Fatigue Training Session,2020.2.4,MacIntel,60,,,,,,,,k,1,0.345,3,3,33,3,1,4,AX,A,X,target,k,,,,,,,,,,,,,,,,,,,,,,,,,,,,,,,,,,,,,,,,,,,,,,,,,,,,,,,,,,,,,,,,,,
340.7042,,,,,,,,lucy_pilot,2024-01-11_13h48.10.726,Mental Fatigue Training Session,2020.2.4,MacIntel,60,,,,,,,,d,0,0.6452,3,4,34,5,1,6,AX,A,X,target,k,,,,,,,,,,,,,,,,,,,,,,,,,,,,,,,,,,,,,,,,,,,,,,,,,,,,,,,,,,,,,,,,,,
348.0962,,,,,,,,lucy_pilot,2024-01-11_13h48.10.726,Mental Fatigue Training Session,2020.2.4,MacIntel,60,,,,,,,,k,1,0.38,3,5,35,1,1,2,AX,A,X,target,k,,,,,,,,,,,,,,,,,,,,,,,,,,,,,,,,,,,,,,,,,,,,,,,,,,,,,,,,,,,,,,,,,,
355.2003,,,,,,,,lucy_pilot,2024-01-11_13h48.10.726,Mental Fatigue Training Session,2020.2.4,MacIntel,60,,,,,,,,k,1,0.3855,3,6,36,2,1,3,AX,A,X,target,k,,,,,,,,,,,,,,,,,,,,,,,,,,,,,,,,,,,,,,,,,,,,,,,,,,,,,,,,,,,,,,,,,,
362.306,,,,,,,,lucy_pilot,2024-01-11_13h48.10.726,Mental Fatigue Training Session,2020.2.4,MacIntel,60,,,,,,,,d,1,0.7191,3,7,37,9,1,10,BY,B,Y,bothWrong,d,,,,,,,,,,,,,,,,,,,,,,,,,,,,,,,,,,,,,,,,,,,,,,,,,,,,,,,,,,,,,,,,,,
369.7622,,,,,,,,lucy_pilot,2024-01-11_13h48.10.726,Mental Fatigue Training Session,2020.2.4,MacIntel,60,,,,,,,,d,1,0.51,3,8,38,7,1,8,BX,B,X,probeWrong,d,,,,,,,,,,,,,,,,,,,,,,,,,,,,,,,,,,,,,,,,,,,,,,,,,,,,,,,,,,,,,,,,,,
377.0002,,,,,,,,lucy_pilot,2024-01-11_13h48.10.726,Mental Fatigue Training Session,2020.2.4,MacIntel,60,,,,,,,,k,1,0.512,3,9,39,4,1,5,AX,A,X,target,k,,,,,,,,,,,,,,,,,,,,,,,,,,,,,,,,,,,,,,,,,,,,,,,,,,,,,,,,,,,,,,,,,,
384.2252,,,,,,,,lucy_pilot,2024-01-11_13h48.10.726,Mental Fatigue Training Session,2020.2.4,MacIntel,60,,,,,,,,d,1,0.5225,4,0,40,7,1,8,BX,B,X,probeWrong,d,,,,,,,,,,,,,,,,,,,,,,,,,,,,,,,,,,,,,,,,,,,,,,,,,,,,,,,,,,,,,,,,,,
391.4952,,,,,,,,lucy_pilot,2024-01-11_13h48.10.726,Mental Fatigue Training Session,2020.2.4,MacIntel,60,,,,,,,,k,1,0.41,4,1,41,3,1,4,AX,A,X,target,k,,,,,,,,,,,,,,,,,,,,,,,,,,,,,,,,,,,,,,,,,,,,,,,,,,,,,,,,,,,,,,,,,,
398.6221,,,,,,,,lucy_pilot,2024-01-11_13h48.10.726,Mental Fatigue Training Session,2020.2.4,MacIntel,60,,,,,,,,k,1,0.4791,4,2,42,6,1,7,AX,A,X,target,k,,,,,,,,,,,,,,,,,,,,,,,,,,,,,,,,,,,,,,,,,,,,,,,,,,,,,,,,,,,,,,,,,,
427.6395,,,,,,,,lucy_pilot,2024-01-11_13h48.10.726,Mental Fatigue Training Session,2020.2.4,MacIntel,60,,,,,,,,,,,,,,,,,,,,,,6.1151,right,6.1044,right,16.8787,0,0,0,0,1,,,,,,,,,,,,,,,,,,,,,,,,,,,,,,,,,,,,,,,,,,,,,,,,,,,,,,,,
455.1647,,,,,,,,lucy_pilot,2024-01-11_13h48.10.726,Mental Fatigue Training Session,2020.2.4,MacIntel,60,,,,,,,,,,,,,,,,,,,,,,,,,right,27.5021,1,0,1,0,1,,,,,,,,,,,,,,,,,,,,,,,,,,,,,,,,,,,,,,,,,,,,,,,,,,,,,,,,
456.9476,,,,,,,,lucy_pilot,2024-01-11_13h48.10.726,Mental Fatigue Training Session,2020.2.4,MacIntel,60,,,,,,,,,,,,,,,,,,,,,,,,,left,1.7623,2,0,2,0,1,,,,,,,,,,,,,,,,,,,,,,,,,,,,,,,,,,,,,,,,,,,,,,,,,,,,,,,,
460.5678,,,,,,,,lucy_pilot,2024-01-11_13h48.10.726,Mental Fatigue Training Session,2020.2.4,MacIntel,60,,,,,,,,,,,,,,,,,,,,,,,,,right,3.6009,3,0,3,0,1,,,,,,,,,,,,,,,,,,,,,,,,,,,,,,,,,,,,,,,,,,,,,,,,,,,,,,,,
469.3578,,,,,,,,lucy_pilot,2024-01-11_13h48.10.726,Mental Fatigue Training Session,2020.2.4,MacIntel,60,,,,,,,,,,,,,,,,,,,,,,,,,right,8.7741,4,0,4,0,1,,,,,,,,,,,,,,,,,,,,,,,,,,,,,,,,,,,,,,,,,,,,,,,,,,,,,,,,
472.6613,,,,,,,,lucy_pilot,2024-01-11_13h48.10.726,Mental Fatigue Training Session,2020.2.4,MacIntel,60,,,,,,,,,,,,,,,,,,,,,,,,,k,3.2952,5,0,5,0,1,,,,,,,,,,,,,,,,,,,,,,,,,,,,,,,,,,,,,,,,,,,,,,,,,,,,,,,,
473.8599,,,,,,,,lucy_pilot,2024-01-11_13h48.10.726,Mental Fatigue Training Session,2020.2.4,MacIntel,60,,,,,,,,,,,,,,,,,,,,,,,,,,,,,,,,,0,0,0,0,1,,,,,,,,,,,,,,,,,,,,,,,,,,,,,,,,,,,,,,,,,,,,,,,,,,
477.0644,,,,,,,,lucy_pilot,2024-01-11_13h48.10.726,Mental Fatigue Training Session,2020.2.4,MacIntel,60,,,,,,,,,,,,,,,,,,,,,,,,,,,,,,,,,1,0,1,0,1,,,,,,,,,,,,,,,,,,,,,,,,,,,,,,,,,,,,,,,,,,,,,,,,,,
480.268,,,,,,,,lucy_pilot,2024-01-11_13h48.10.726,Mental Fatigue Training Session,2020.2.4,MacIntel,60,,,,,,,,,,,,,,,,,,,,,,,,,,,,,,,,,2,0,2,0,1,,,,,,,,,,,,,,,,,,,,,,,,,,,,,,,,,,,,,,,,,,,,,,,,,,
483.4723,,,,,,,,lucy_pilot,2024-01-11_13h48.10.726,Mental Fatigue Training Session,2020.2.4,MacIntel,60,,,,,,,,,,,,,,,,,5,,,nonTarget,d,,,,,,,,,,,,,,,,,d,1,1.0817,0,0,0,4,1,,,,,,,,,,,,,,,,,,,,,,,,,,,,,,,,,,,,,,,,,,
486.7893,,,,,,,,lucy_pilot,2024-01-11_13h48.10.726,Mental Fatigue Training Session,2020.2.4,MacIntel,60,,,,,,,,,,,,,,,,,8,,,nonTarget,d,,,,,,,,,,,,,,,,,d,1,1.6256,0,1,1,7,1,,,,,,,,,,,,,,,,,,,,,,,,,,,,,,,,,,,,,,,,,,
490.6451,,,,,,,,lucy_pilot,2024-01-11_13h48.10.726,Mental Fatigue Training Session,2020.2.4,MacIntel,60,,,,,,,,,,,,,,,,,6,,,nonTarget,d,,,,,,,,,,,,,,,,,d,1,1.2133,0,2,2,5,1,,,,,,,,,,,,,,,,,,,,,,,,,,,,,,,,,,,,,,,,,,
494.097,,,,,,,,lucy_pilot,2024-01-11_13h48.10.726,Mental Fatigue Training Session,2020.2.4,MacIntel,60,,,,,,,,,,,,,,,,,4,,,nonTarget,d,,,,,,,,,,,,,,,,,d,1,1.3456,0,3,3,3,1,,,,,,,,,,,,,,,,,,,,,,,,,,,,,,,,,,,,,,,,,,
497.6687,,,,,,,,lucy_pilot,2024-01-11_13h48.10.726,Mental Fatigue Training Session,2020.2.4,MacIntel,60,,,,,,,,,,,,,,,,,10,,,nonTarget,d,,,,,,,,,,,,,,,,,d,1,1.2315,0,4,4,9,1,,,,,,,,,,,,,,,,,,,,,,,,,,,,,,,,,,,,,,,,,,
501.1223,,,,,,,,lucy_pilot,2024-01-11_13h48.10.726,Mental Fatigue Training Session,2020.2.4,MacIntel,60,,,,,,,,,,,,,,,,,7,,,nonTarget,d,,,,,,,,,,,,,,,,,d,1,1.0307,0,5,5,6,1,,,,,,,,,,,,,,,,,,,,,,,,,,,,,,,,,,,,,,,,,,
504.3739,,,,,,,,lucy_pilot,2024-01-11_13h48.10.726,Mental Fatigue Training Session,2020.2.4,MacIntel,60,,,,,,,,,,,,,,,,,2,,,target,k,,,,,,,,,,,,,,,,,k,1,0.4518,0,6,6,1,1,,,,,,,,,,,,,,,,,,,,,,,,,,,,,,,,,,,,,,,,,,
507.0429,,,,,,,,lucy_pilot,2024-01-11_13h48.10.726,Mental Fatigue Training Session,2020.2.4,MacIntel,60,,,,,,,,,,,,,,,,,9,,,nonTarget,d,,,,,,,,,,,,,,,,,d,1,0.911,0,7,7,8,1,,,,,,,,,,,,,,,,,,,,,,,,,,,,,,,,,,,,,,,,,,
510.1778,,,,,,,,lucy_pilot,2024-01-11_13h48.10.726,Mental Fatigue Training Session,2020.2.4,MacIntel,60,,,,,,,,,,,,,,,,,1,,,target,k,,,,,,,,,,,,,,,,,k,1,1.1781,0,8,8,0,1,,,,,,,,,,,,,,,,,,,,,,,,,,,,,,,,,,,,,,,,,,
513.5798,,,,,,,,lucy_pilot,2024-01-11_13h48.10.726,Mental Fatigue Training Session,2020.2.4,MacIntel,60,,,,,,,,,,,,,,,,,3,,,target,k,,,,,,,,,,,,,,,,,d,0,1.9456,0,9,9,2,1,,,,,,,,,,,,,,,,,,,,,,,,,,,,,,,,,,,,,,,,,,
517.7497,,,,,,,,lucy_pilot,2024-01-11_13h48.10.726,Mental Fatigue Training Session,2020.2.4,MacIntel,60,,,,,,,,,,,,,,,,,1,,,target,k,,,,,,,,,,,,,,,,,,0,,1,0,10,0,1,,,,,,,,,,,,,,,,,,,,,,,,,,,,,,,,,,,,,,,,,,
521.9514,,,,,,,,lucy_pilot,2024-01-11_13h48.10.726,Mental Fatigue Training Session,2020.2.4,MacIntel,60,,,,,,,,,,,,,,,,,4,,,nonTarget,d,,,,,,,,,,,,,,,,,d,1,1.3695,1,1,11,3,1,,,,,,,,,,,,,,,,,,,,,,,,,,,,,,,,,,,,,,,,,,
525.5557,,,,,,,,lucy_pilot,2024-01-11_13h48.10.726,Mental Fatigue Training Session,2020.2.4,MacIntel,60,,,,,,,,,,,,,,,,,10,,,nonTarget,d,,,,,,,,,,,,,,,,,d,1,0.5801,1,2,12,9,1,,,,,,,,,,,,,,,,,,,,,,,,,,,,,,,,,,,,,,,,,,
528.3583,,,,,,,,lucy_pilot,2024-01-11_13h48.10.726,Mental Fatigue Training Session,2020.2.4,MacIntel,60,,,,,,,,,,,,,,,,,3,,,target,k,,,,,,,,,,,,,,,,,k,1,1.0152,1,3,13,2,1,,,,,,,,,,,,,,,,,,,,,,,,,,,,,,,,,,,,,,,,,,
531.5956,,,,,,,,lucy_pilot,2024-01-11_13h48.10.726,Mental Fatigue Training Session,2020.2.4,MacIntel,60,,,,,,,,,,,,,,,,,5,,,nonTarget,d,,,,,,,,,,,,,,,,,k,0,0.904,1,4,14,4,1,,,,,,,,,,,,,,,,,,,,,,,,,,,,,,,,,,,,,,,,,,
534.7334,,,,,,,,lucy_pilot,2024-01-11_13h48.10.726,Mental Fatigue Training Session,2020.2.4,MacIntel,60,,,,,,,,,,,,,,,,,7,,,nonTarget,d,,,,,,,,,,,,,,,,,d,1,1.3261,1,5,15,6,1,,,,,,,,,,,,,,,,,,,,,,,,,,,,,,,,,,,,,,,,,,
538.2859,,,,,,,,lucy_pilot,2024-01-11_13h48.10.726,Mental Fatigue Training Session,2020.2.4,MacIntel,60,,,,,,,,,,,,,,,,,9,,,nonTarget,d,,,,,,,,,,,,,,,,,d,1,0.8274,1,6,16,8,1,,,,,,,,,,,,,,,,,,,,,,,,,,,,,,,,,,,,,,,,,,
541.336,,,,,,,,lucy_pilot,2024-01-11_13h48.10.726,Mental Fatigue Training Session,2020.2.4,MacIntel,60,,,,,,,,,,,,,,,,,6,,,nonTarget,d,,,,,,,,,,,,,,,,,d,1,1.563,1,7,17,5,1,,,,,,,,,,,,,,,,,,,,,,,,,,,,,,,,,,,,,,,,,,
545.1243,,,,,,,,lucy_pilot,2024-01-11_13h48.10.726,Mental Fatigue Training Session,2020.2.4,MacIntel,60,,,,,,,,,,,,,,,,,2,,,target,k,,,,,,,,,,,,,,,,,k,1,1.265,1,8,18,1,1,,,,,,,,,,,,,,,,,,,,,,,,,,,,,,,,,,,,,,,,,,
548.6119,,,,,,,,lucy_pilot,2024-01-11_13h48.10.726,Mental Fatigue Training Session,2020.2.4,MacIntel,60,,,,,,,,,,,,,,,,,8,,,nonTarget,d,,,,,,,,,,,,,,,,,d,1,0.713,1,9,19,7,1,,,,,,,,,,,,,,,,,,,,,,,,,,,,,,,,,,,,,,,,,,
551.5659,,,,,,,,lucy_pilot,2024-01-11_13h48.10.726,Mental Fatigue Training Session,2020.2.4,MacIntel,60,,,,,,,,,,,,,,,,,4,,,nonTarget,d,,,,,,,,,,,,,,,,,d,1,1.1268,2,0,20,3,1,,,,,,,,,,,,,,,,,,,,,,,,,,,,,,,,,,,,,,,,,,
554.9172,,,,,,,,lucy_pilot,2024-01-11_13h48.10.726,Mental Fatigue Training Session,2020.2.4,MacIntel,60,,,,,,,,,,,,,,,,,2,,,target,k,,,,,,,,,,,,,,,,,k,1,1.0296,2,1,21,1,1,,,,,,,,,,,,,,,,,,,,,,,,,,,,,,,,,,,,,,,,,,
558.1685,,,,,,,,lucy_pilot,2024-01-11_13h48.10.726,Mental Fatigue Training Session,2020.2.4,MacIntel,60,,,,,,,,,,,,,,,,,9,,,nonTarget,d,,,,,,,,,,,,,,,,,,0,,2,2,22,8,1,,,,,,,,,,,,,,,,,,,,,,,,,,,,,,,,,,,,,,,,,,
562.3714,,,,,,,,lucy_pilot,2024-01-11_13h48.10.726,Mental Fatigue Training Session,2020.2.4,MacIntel,60,,,,,,,,,,,,,,,,,8,,,nonTarget,d,,,,,,,,,,,,,,,,,,0,,2,3,23,7,1,,,,,,,,,,,,,,,,,,,,,,,,,,,,,,,,,,,,,,,,,,
566.5736,,,,,,,,lucy_pilot,2024-01-11_13h48.10.726,Mental Fatigue Training Session,2020.2.4,MacIntel,60,,,,,,,,,,,,,,,,,5,,,nonTarget,d,,,,,,,,,,,,,,,,,k,0,1.5683,2,4,24,4,1,,,,,,,,,,,,,,,,,,,,,,,,,,,,,,,,,,,,,,,,,,
570.3586,,,,,,,,lucy_pilot,2024-01-11_13h48.10.726,Mental Fatigue Training Session,2020.2.4,MacIntel,60,,,,,,,,,,,,,,,,,1,,,target,k,,,,,,,,,,,,,,,,,k,1,0.4804,2,5,25,0,1,,,,,,,,,,,,,,,,,,,,,,,,,,,,,,,,,,,,,,,,,,
573.0638,,,,,,,,lucy_pilot,2024-01-11_13h48.10.726,Mental Fatigue Training Session,2020.2.4,MacIntel,60,,,,,,,,,,,,,,,,,3,,,target,k,,,,,,,,,,,,,,,,,k,1,0.8111,2,6,26,2,1,,,,,,,,,,,,,,,,,,,,,,,,,,,,,,,,,,,,,,,,,,
576.0993,,,,,,,,lucy_pilot,2024-01-11_13h48.10.726,Mental Fatigue Training Session,2020.2.4,MacIntel,60,,,,,,,,,,,,,,,,,7,,,nonTarget,d,,,,,,,,,,,,,,,,,d,1,0.5428,2,7,27,6,1,,,,,,,,,,,,,,,,,,,,,,,,,,,,,,,,,,,,,,,,,,
578.8677,,,,,,,,lucy_pilot,2024-01-11_13h48.10.726,Mental Fatigue Training Session,2020.2.4,MacIntel,60,,,,,,,,,,,,,,,,,10,,,nonTarget,d,,,,,,,,,,,,,,,,,d,1,1.138,2,8,28,9,1,,,,,,,,,,,,,,,,,,,,,,,,,,,,,,,,,,,,,,,,,,
582.2527,,,,,,,,lucy_pilot,2024-01-11_13h48.10.726,Mental Fatigue Training Session,2020.2.4,MacIntel,60,,,,,,,,,,,,,,,,,6,,,nonTarget,d,,,,,,,,,,,,,,,,,d,1,1.9309,2,9,29,5,1,,,,,,,,,,,,,,,,,,,,,,,,,,,,,,,,,,,,,,,,,,
586.4073,,,,,,,,lucy_pilot,2024-01-11_13h48.10.726,Mental Fatigue Training Session,2020.2.4,MacIntel,60,,,,,,,,,,,,,,,,,1,,,target,k,,,,,,,,,,,,,,,,,k,1,0.4458,3,0,30,0,1,,,,,,,,,,,,,,,,,,,,,,,,,,,,,,,,,,,,,,,,,,
589.0779,,,,,,,,lucy_pilot,2024-01-11_13h48.10.726,Mental Fatigue Training Session,2020.2.4,MacIntel,60,,,,,,,,,,,,,,,,,10,,,nonTarget,d,,,,,,,,,,,,,,,,,,0,,3,1,31,9,1,,,,,,,,,,,,,,,,,,,,,,,,,,,,,,,,,,,,,,,,,,
593.2836,,,,,,,,lucy_pilot,2024-01-11_13h48.10.726,Mental Fatigue Training Session,2020.2.4,MacIntel,60,,,,,,,,,,,,,,,,,5,,,nonTarget,d,,,,,,,,,,,,,,,,,d,1,0.8967,3,2,32,4,1,,,,,,,,,,,,,,,,,,,,,,,,,,,,,,,,,,,,,,,,,,
596.4201,,,,,,,,lucy_pilot,2024-01-11_13h48.10.726,Mental Fatigue Training Session,2020.2.4,MacIntel,60,,,,,,,,,,,,,,,,,2,,,target,k,,,,,,,,,,,,,,,,,k,1,0.4946,3,3,33,1,1,,,,,,,,,,,,,,,,,,,,,,,,,,,,,,,,,,,,,,,,,,
599.1372,,,,,,,,lucy_pilot,2024-01-11_13h48.10.726,Mental Fatigue Training Session,2020.2.4,MacIntel,60,,,,,,,,,,,,,,,,,8,,,nonTarget,d,,,,,,,,,,,,,,,,,d,1,0.8457,3,4,34,7,1,,,,,,,,,,,,,,,,,,,,,,,,,,,,,,,,,,,,,,,,,,
602.2049,,,,,,,,lucy_pilot,2024-01-11_13h48.10.726,Mental Fatigue Training Session,2020.2.4,MacIntel,60,,,,,,,,,,,,,,,,,6,,,nonTarget,d,,,,,,,,,,,,,,,,,d,1,1.1989,3,5,35,5,1,,,,,,,,,,,,,,,,,,,,,,,,,,,,,,,,,,,,,,,,,,
605.6246,,,,,,,,lucy_pilot,2024-01-11_13h48.10.726,Mental Fatigue Training Session,2020.2.4,MacIntel,60,,,,,,,,,,,,,,,,,9,,,nonTarget,d,,,,,,,,,,,,,,,,,d,1,0.9929,3,6,36,8,1,,,,,,,,,,,,,,,,,,,,,,,,,,,,,,,,,,,,,,,,,,
608.8434,,,,,,,,lucy_pilot,2024-01-11_13h48.10.726,Mental Fatigue Training Session,2020.2.4,MacIntel,60,,,,,,,,,,,,,,,,,7,,,nonTarget,d,,,,,,,,,,,,,,,,,d,1,1.1627,3,7,37,6,1,,,,,,,,,,,,,,,,,,,,,,,,,,,,,,,,,,,,,,,,,,
612.2279,,,,,,,,lucy_pilot,2024-01-11_13h48.10.726,Mental Fatigue Training Session,2020.2.4,MacIntel,60,,,,,,,,,,,,,,,,,3,,,target,k,,,,,,,,,,,,,,,,,k,1,0.4043,3,8,38,2,1,,,,,,,,,,,,,,,,,,,,,,,,,,,,,,,,,,,,,,,,,,
614.8472,,,,,,,,lucy_pilot,2024-01-11_13h48.10.726,Mental Fatigue Training Session,2020.2.4,MacIntel,60,,,,,,,,,,,,,,,,,4,,,nonTarget,d,,,,,,,,,,,,,,,,,d,1,0.7632,3,9,39,3,1,,,,,,,,,,,,,,,,,,,,,,,,,,,,,,,,,,,,,,,,,,
617.8317,,,,,,,,lucy_pilot,2024-01-11_13h48.10.726,Mental Fatigue Training Session,2020.2.4,MacIntel,60,,,,,,,,,,,,,,,,,7,,,nonTarget,d,,,,,,,,,,,,,,,,,d,1,0.9116,4,0,40,6,1,,,,,,,,,,,,,,,,,,,,,,,,,,,,,,,,,,,,,,,,,,
620.968,,,,,,,,lucy_pilot,2024-01-11_13h48.10.726,Mental Fatigue Training Session,2020.2.4,MacIntel,60,,,,,,,,,,,,,,,,,4,,,nonTarget,d,,,,,,,,,,,,,,,,,d,1,0.8562,4,1,41,3,1,,,,,,,,,,,,,,,,,,,,,,,,,,,,,,,,,,,,,,,,,,
624.0547,,,,,,,,lucy_pilot,2024-01-11_13h48.10.726,Mental Fatigue Training Session,2020.2.4,MacIntel,60,,,,,,,,,,,,,,,,,6,,,nonTarget,d,,,,,,,,,,,,,,,,,d,1,1.0215,4,2,42,5,1,,,,,,,,,,,,,,,,,,,,,,,,,,,,,,,,,,,,,,,,,,
627.3066,,,,,,,,lucy_pilot,2024-01-11_13h48.10.726,Mental Fatigue Training Session,2020.2.4,MacIntel,60,,,,,,,,,,,,,,,,,10,,,nonTarget,d,,,,,,,,,,,,,,,,,d,1,1.5235,4,3,43,9,1,,,,,,,,,,,,,,,,,,,,,,,,,,,,,,,,,,,,,,,,,,
631.077,,,,,,,,lucy_pilot,2024-01-11_13h48.10.726,Mental Fatigue Training Session,2020.2.4,MacIntel,60,,,,,,,,,,,,,,,,,9,,,nonTarget,d,,,,,,,,,,,,,,,,,d,1,1.6465,4,4,44,8,1,,,,,,,,,,,,,,,,,,,,,,,,,,,,,,,,,,,,,,,,,,
634.9625,,,,,,,,lucy_pilot,2024-01-11_13h48.10.726,Mental Fatigue Training Session,2020.2.4,MacIntel,60,,,,,,,,,,,,,,,,,1,,,target,k,,,,,,,,,,,,,,,,,k,1,0.8481,4,5,45,0,1,,,,,,,,,,,,,,,,,,,,,,,,,,,,,,,,,,,,,,,,,,
638.0322,,,,,,,,lucy_pilot,2024-01-11_13h48.10.726,Mental Fatigue Training Session,2020.2.4,MacIntel,60,,,,,,,,,,,,,,,,,2,,,target,k,,,,,,,,,,,,,,,,,k,1,0.4965,4,6,46,1,1,,,,,,,,,,,,,,,,,,,,,,,,,,,,,,,,,,,,,,,,,,
640.7521,,,,,,,,lucy_pilot,2024-01-11_13h48.10.726,Mental Fatigue Training Session,2020.2.4,MacIntel,60,,,,,,,,,,,,,,,,,3,,,target,k,,,,,,,,,,,,,,,,,k,1,1.2797,4,7,47,2,1,,,,,,,,,,,,,,,,,,,,,,,,,,,,,,,,,,,,,,,,,,
644.2574,,,,,,,,lucy_pilot,2024-01-11_13h48.10.726,Mental Fatigue Training Session,2020.2.4,MacIntel,60,,,,,,,,,,,,,,,,,5,,,nonTarget,d,,,,,,,,,,,,,,,,,d,1,0.7957,4,8,48,4,1,,,,,,,,,,,,,,,,,,,,,,,,,,,,,,,,,,,,,,,,,,
647.2788,,,,,,,,lucy_pilot,2024-01-11_13h48.10.726,Mental Fatigue Training Session,2020.2.4,MacIntel,60,,,,,,,,,,,,,,,,,8,,,nonTarget,d,,,,,,,,,,,,,,,,,d,1,1.3591,4,9,49,7,1,,,,,,,,,,,,,,,,,,,,,,,,,,,,,,,,,,,,,,,,,,
650.8635,,,,,,,,lucy_pilot,2024-01-11_13h48.10.726,Mental Fatigue Training Session,2020.2.4,MacIntel,60,,,,,,,,,,,,,,,,,9,,,nonTarget,d,,,,,,,,,,,,,,,,,d,1,1.3617,5,0,50,8,1,,,,,,,,,,,,,,,,,,,,,,,,,,,,,,,,,,,,,,,,,,
654.4494,,,,,,,,lucy_pilot,2024-01-11_13h48.10.726,Mental Fatigue Training Session,2020.2.4,MacIntel,60,,,,,,,,,,,,,,,,,4,,,nonTarget,d,,,,,,,,,,,,,,,,,d,1,1.296,5,1,51,3,1,,,,,,,,,,,,,,,,,,,,,,,,,,,,,,,,,,,,,,,,,,
657.9675,,,,,,,,lucy_pilot,2024-01-11_13h48.10.726,Mental Fatigue Training Session,2020.2.4,MacIntel,60,,,,,,,,,,,,,,,,,5,,,nonTarget,d,,,,,,,,,,,,,,,,,d,1,1.4791,5,2,52,4,1,,,,,,,,,,,,,,,,,,,,,,,,,,,,,,,,,,,,,,,,,,
661.6701,,,,,,,,lucy_pilot,2024-01-11_13h48.10.726,Mental Fatigue Training Session,2020.2.4,MacIntel,60,,,,,,,,,,,,,,,,,8,,,nonTarget,d,,,,,,,,,,,,,,,,,d,1,1.3625,5,3,53,7,1,,,,,,,,,,,,,,,,,,,,,,,,,,,,,,,,,,,,,,,,,,
665.2554,,,,,,,,lucy_pilot,2024-01-11_13h48.10.726,Mental Fatigue Training Session,2020.2.4,MacIntel,60,,,,,,,,,,,,,,,,,2,,,target,k,,,,,,,,,,,,,,,,,k,1,0.4289,5,4,54,1,1,,,,,,,,,,,,,,,,,,,,,,,,,,,,,,,,,,,,,,,,,,
667.9063,,,,,,,,lucy_pilot,2024-01-11_13h48.10.726,Mental Fatigue Training Session,2020.2.4,MacIntel,60,,,,,,,,,,,,,,,,,1,,,target,k,,,,,,,,,,,,,,,,,k,1,1.5148,5,5,55,0,1,,,,,,,,,,,,,,,,,,,,,,,,,,,,,,,,,,,,,,,,,,
671.6424,,,,,,,,lucy_pilot,2024-01-11_13h48.10.726,Mental Fatigue Training Session,2020.2.4,MacIntel,60,,,,,,,,,,,,,,,,,7,,,nonTarget,d,,,,,,,,,,,,,,,,,d,1,1.7107,5,6,56,6,1,,,,,,,,,,,,,,,,,,,,,,,,,,,,,,,,,,,,,,,,,,
675.5786,,,,,,,,lucy_pilot,2024-01-11_13h48.10.726,Mental Fatigue Training Session,2020.2.4,MacIntel,60,,,,,,,,,,,,,,,,,3,,,target,k,,,,,,,,,,,,,,,,,k,1,0.5508,5,7,57,2,1,,,,,,,,,,,,,,,,,,,,,,,,,,,,,,,,,,,,,,,,,,
678.3489,,,,,,,,lucy_pilot,2024-01-11_13h48.10.726,Mental Fatigue Training Session,2020.2.4,MacIntel,60,,,,,,,,,,,,,,,,,10,,,nonTarget,d,,,,,,,,,,,,,,,,,d,1,1.3469,5,8,58,9,1,,,,,,,,,,,,,,,,,,,,,,,,,,,,,,,,,,,,,,,,,,
681.9187,,,,,,,,lucy_pilot,2024-01-11_13h48.10.726,Mental Fatigue Training Session,2020.2.4,MacIntel,60,,,,,,,,,,,,,,,,,6,,,nonTarget,d,,,,,,,,,,,,,,,,,d,1,1.8888,5,9,59,5,1,,,,,,,,,,,,,,,,,,,,,,,,,,,,,,,,,,,,,,,,,,
686.0398,,,,,,,,lucy_pilot,2024-01-11_13h48.10.726,Mental Fatigue Training Session,2020.2.4,MacIntel,60,,,,,,,,,,,,,,,,,7,,,nonTarget,d,,,,,,,,,,,,,,,,,d,1,1.1949,6,0,60,6,1,,,,,,,,,,,,,,,,,,,,,,,,,,,,,,,,,,,,,,,,,,
689.4583,,,,,,,,lucy_pilot,2024-01-11_13h48.10.726,Mental Fatigue Training Session,2020.2.4,MacIntel,60,,,,,,,,,,,,,,,,,4,,,nonTarget,d,,,,,,,,,,,,,,,,,d,1,1.5958,6,1,61,3,1,,,,,,,,,,,,,,,,,,,,,,,,,,,,,,,,,,,,,,,,,,
693.2787,,,,,,,,lucy_pilot,2024-01-11_13h48.10.726,Mental Fatigue Training Session,2020.2.4,MacIntel,60,,,,,,,,,,,,,,,,,5,,,nonTarget,d,,,,,,,,,,,,,,,,,d,1,1.5925,6,2,62,4,1,,,,,,,,,,,,,,,,,,,,,,,,,,,,,,,,,,,,,,,,,,
697.0971,,,,,,,,lucy_pilot,2024-01-11_13h48.10.726,Mental Fatigue Training Session,2020.2.4,MacIntel,60,,,,,,,,,,,,,,,,,10,,,nonTarget,d,,,,,,,,,,,,,,,,,d,1,1.8273,6,3,63,9,1,,,,,,,,,,,,,,,,,,,,,,,,,,,,,,,,,,,,,,,,,,
701.1552,,,,,,,,lucy_pilot,2024-01-11_13h48.10.726,Mental Fatigue Training Session,2020.2.4,MacIntel,60,,,,,,,,,,,,,,,,,3,,,target,k,,,,,,,,,,,,,,,,,k,1,0.4134,6,4,64,2,1,,,,,,,,,,,,,,,,,,,,,,,,,,,,,,,,,,,,,,,,,,
703.7893,,,,,,,,lucy_pilot,2024-01-11_13h48.10.726,Mental Fatigue Training Session,2020.2.4,MacIntel,60,,,,,,,,,,,,,,,,,2,,,target,k,,,,,,,,,,,,,,,,,k,1,1.5949,6,5,65,1,1,,,,,,,,,,,,,,,,,,,,,,,,,,,,,,,,,,,,,,,,,,
707.6088,,,,,,,,lucy_pilot,2024-01-11_13h48.10.726,Mental Fatigue Training Session,2020.2.4,MacIntel,60,,,,,,,,,,,,,,,,,8,,,nonTarget,d,,,,,,,,,,,,,,,,,d,1,0.9242,6,6,66,7,1,,,,,,,,,,,,,,,,,,,,,,,,,,,,,,,,,,,,,,,,,,
710.7627,,,,,,,,lucy_pilot,2024-01-11_13h48.10.726,Mental Fatigue Training Session,2020.2.4,MacIntel,60,,,,,,,,,,,,,,,,,6,,,nonTarget,d,,,,,,,,,,,,,,,,,d,1,1.5436,6,7,67,5,1,,,,,,,,,,,,,,,,,,,,,,,,,,,,,,,,,,,,,,,,,,
751.8579,,,,,,,,lucy_pilot,2024-01-11_13h48.10.726,Mental Fatigue Training Session,2020.2.4,MacIntel,60,,,,,,,,,,,,,,,,,,,,,,,,,,,,,,,,,,,,,,,,,,,,,,28.6525,right,28.6418,right,9.8523,0,0,0,0,1,,,,,,,,,,,,,,,,,,,,,,,,,,,,,,,,
782.8164,,,,,,,,lucy_pilot,2024-01-11_13h48.10.726,Mental Fatigue Training Session,2020.2.4,MacIntel,60,,,,,,,,,,,,,,,,,,,,,,,,,,,,,,,,,,,,,,,,,,,,,,,,,right,30.9391,1,0,1,0,1,,,,,,,,,,,,,,,,,,,,,,,,,,,,,,,,
789.6714,,,,,,,,lucy_pilot,2024-01-11_13h48.10.726,Mental Fatigue Training Session,2020.2.4,MacIntel,60,,,,,,,,,,,,,,,,,,,,,,,,,,,,,,,,,,,,,,,,,,,,,,,,,k,6.8381,2,0,2,0,1,,,,,,,,,,,,,,,,,,,,,,,,,,,,,,,,
790.877,,,,,,,,lucy_pilot,2024-01-11_13h48.10.726,Mental Fatigue Training Session,2020.2.4,MacIntel,60,,,,,,,,,,,,,,,,,,,,,k,,,,,,,,,,,,,,,,,,,,,,,,,,,,,,,,,,,k,1,1.2775,0,0,0,6,1,target,T,,,,,,,,,,,,,,,,,,,,,,
794.3934,,,,,,,,lucy_pilot,2024-01-11_13h48.10.726,Mental Fatigue Training Session,2020.2.4,MacIntel,60,,,,,,,,,,,,,,,,,,,,,k,,,,,,,,,,,,,,,,,,,,,,,,,,,,,,,,,,,k,1,1.3865,0,1,1,0,1,target,T,,,,,,,,,,,,,,,,,,,,,,
798.0326,,,,,,,,lucy_pilot,2024-01-11_13h48.10.726,Mental Fatigue Training Session,2020.2.4,MacIntel,60,,,,,,,,,,,,,,,,,,,,,k,,,,,,,,,,,,,,,,,,,,,,,,,,,,,,,,,,,k,1,1.2618,0,2,2,2,1,target,T,,,,,,,,,,,,,,,,,,,,,,
801.5518,,,,,,,,lucy_pilot,2024-01-11_13h48.10.726,Mental Fatigue Training Session,2020.2.4,MacIntel,60,,,,,,,,,,,,,,,,,,,,,d,,,,,,,,,,,,,,,,,,,,,,,,,,,,,,,,,,,d,1,5.7799,0,3,3,1,1,nonTarget,L,,,,,,,,,,,,,,,,,,,,,,
809.5763,,,,,,,,lucy_pilot,2024-01-11_13h48.10.726,Mental Fatigue Training Session,2020.2.4,MacIntel,60,,,,,,,,,,,,,,,,,,,,,d,,,,,,,,,,,,,,,,,,,,,,,,,,,,,,,,,,,d,1,1.4839,0,4,4,7,1,nonTarget,L,,,,,,,,,,,,,,,,,,,,,,
813.2949,,,,,,,,lucy_pilot,2024-01-11_13h48.10.726,Mental Fatigue Training Session,2020.2.4,MacIntel,60,,,,,,,,,,,,,,,,,,,,,d,,,,,,,,,,,,,,,,,,,,,,,,,,,,,,,,,,,d,1,1.7455,0,5,5,9,1,nonTarget,L,,,,,,,,,,,,,,,,,,,,,,
817.2818,,,,,,,,lucy_pilot,2024-01-11_13h48.10.726,Mental Fatigue Training Session,2020.2.4,MacIntel,60,,,,,,,,,,,,,,,,,,,,,k,,,,,,,,,,,,,,,,,,,,,,,,,,,,,,,,,,,k,1,0.8565,0,6,6,4,1,target,T,,,,,,,,,,,,,,,,,,,,,,
820.3667,,,,,,,,lucy_pilot,2024-01-11_13h48.10.726,Mental Fatigue Training Session,2020.2.4,MacIntel,60,,,,,,,,,,,,,,,,,,,,,k,,,,,,,,,,,,,,,,,,,,,,,,,,,,,,,,,,,k,1,1.2561,0,7,7,8,1,target,T,,,,,,,,,,,,,,,,,,,,,,
823.8684,,,,,,,,lucy_pilot,2024-01-11_13h48.10.726,Mental Fatigue Training Session,2020.2.4,MacIntel,60,,,,,,,,,,,,,,,,,,,,,d,,,,,,,,,,,,,,,,,,,,,,,,,,,,,,,,,,,d,1,1.7229,0,8,8,5,1,nonTarget,L,,,,,,,,,,,,,,,,,,,,,,
827.8218,,,,,,,,lucy_pilot,2024-01-11_13h48.10.726,Mental Fatigue Training Session,2020.2.4,MacIntel,60,,,,,,,,,,,,,,,,,,,,,d,,,,,,,,,,,,,,,,,,,,,,,,,,,,,,,,,,,d,1,1.6529,0,9,9,3,1,nonTarget,L,,,,,,,,,,,,,,,,,,,,,,
831.7065,,,,,,,,lucy_pilot,2024-01-11_13h48.10.726,Mental Fatigue Training Session,2020.2.4,MacIntel,60,,,,,,,,,,,,,,,,,,,,,d,,,,,,,,,,,,,,,,,,,,,,,,,,,,,,,,,,,d,1,3.1381,1,0,10,9,1,nonTarget,L,,,,,,,,,,,,,,,,,,,,,,
837.0963,,,,,,,,lucy_pilot,2024-01-11_13h48.10.726,Mental Fatigue Training Session,2020.2.4,MacIntel,60,,,,,,,,,,,,,,,,,,,,,d,,,,,,,,,,,,,,,,,,,,,,,,,,,,,,,,,,,d,1,2.3712,1,1,11,3,1,nonTarget,L,,,,,,,,,,,,,,,,,,,,,,
841.7002,,,,,,,,lucy_pilot,2024-01-11_13h48.10.726,Mental Fatigue Training Session,2020.2.4,MacIntel,60,,,,,,,,,,,,,,,,,,,,,k,,,,,,,,,,,,,,,,,,,,,,,,,,,,,,,,,,,d,0,1.0078,1,2,12,0,1,target,T,,,,,,,,,,,,,,,,,,,,,,
844.9369,,,,,,,,lucy_pilot,2024-01-11_13h48.10.726,Mental Fatigue Training Session,2020.2.4,MacIntel,60,,,,,,,,,,,,,,,,,,,,,k,,,,,,,,,,,,,,,,,,,,,,,,,,,,,,,,,,,k,1,1.2172,1,3,13,6,1,target,T,,,,,,,,,,,,,,,,,,,,,,
848.3916,,,,,,,,lucy_pilot,2024-01-11_13h48.10.726,Mental Fatigue Training Session,2020.2.4,MacIntel,60,,,,,,,,,,,,,,,,,,,,,d,,,,,,,,,,,,,,,,,,,,,,,,,,,,,,,,,,,d,1,1.6659,1,4,14,5,1,nonTarget,L,,,,,,,,,,,,,,,,,,,,,,
852.2908,,,,,,,,lucy_pilot,2024-01-11_13h48.10.726,Mental Fatigue Training Session,2020.2.4,MacIntel,60,,,,,,,,,,,,,,,,,,,,,d,,,,,,,,,,,,,,,,,,,,,,,,,,,,,,,,,,,d,1,2.1534,1,5,15,1,1,nonTarget,L,,,,,,,,,,,,,,,,,,,,,,
856.6995,,,,,,,,lucy_pilot,2024-01-11_13h48.10.726,Mental Fatigue Training Session,2020.2.4,MacIntel,60,,,,,,,,,,,,,,,,,,,,,k,,,,,,,,,,,,,,,,,,,,,,,,,,,,,,,,,,,k,1,2.1009,1,6,16,4,1,target,T,,,,,,,,,,,,,,,,,,,,,,
861.0351,,,,,,,,lucy_pilot,2024-01-11_13h48.10.726,Mental Fatigue Training Session,2020.2.4,MacIntel,60,,,,,,,,,,,,,,,,,,,,,d,,,,,,,,,,,,,,,,,,,,,,,,,,,,,,,,,,,d,1,1.3984,1,7,17,7,1,nonTarget,L,,,,,,,,,,,,,,,,,,,,,,
864.6703,,,,,,,,lucy_pilot,2024-01-11_13h48.10.726,Mental Fatigue Training Session,2020.2.4,MacIntel,60,,,,,,,,,,,,,,,,,,,,,k,,,,,,,,,,,,,,,,,,,,,,,,,,,,,,,,,,,k,1,1.082,1,8,18,8,1,target,T,,,,,,,,,,,,,,,,,,,,,,
867.9889,,,,,,,,lucy_pilot,2024-01-11_13h48.10.726,Mental Fatigue Training Session,2020.2.4,MacIntel,60,,,,,,,,,,,,,,,,,,,,,k,,,,,,,,,,,,,,,,,,,,,,,,,,,,,,,,,,,k,1,0.7347,1,9,19,2,1,target,T,,,,,,,,,,,,,,,,,,,,,,
870.9584,,,,,,,,lucy_pilot,2024-01-11_13h48.10.726,Mental Fatigue Training Session,2020.2.4,MacIntel,60,,,,,,,,,,,,,,,,,,,,,d,,,,,,,,,,,,,,,,,,,,,,,,,,,,,,,,,,,d,1,2.1825,2,0,20,5,1,nonTarget,L,,,,,,,,,,,,,,,,,,,,,,
875.3768,,,,,,,,lucy_pilot,2024-01-11_13h48.10.726,Mental Fatigue Training Session,2020.2.4,MacIntel,60,,,,,,,,,,,,,,,,,,,,,k,,,,,,,,,,,,,,,,,,,,,,,,,,,,,,,,,,,k,1,0.8676,2,1,21,2,1,target,T,,,,,,,,,,,,,,,,,,,,,,
878.4809,,,,,,,,lucy_pilot,2024-01-11_13h48.10.726,Mental Fatigue Training Session,2020.2.4,MacIntel,60,,,,,,,,,,,,,,,,,,,,,k,,,,,,,,,,,,,,,,,,,,,,,,,,,,,,,,,,,k,1,0.8439,2,2,22,4,1,target,T,,,,,,,,,,,,,,,,,,,,,,
881.5671,,,,,,,,lucy_pilot,2024-01-11_13h48.10.726,Mental Fatigue Training Session,2020.2.4,MacIntel,60,,,,,,,,,,,,,,,,,,,,,k,,,,,,,,,,,,,,,,,,,,,,,,,,,,,,,,,,,k,1,1.4695,2,3,23,0,1,target,T,,,,,,,,,,,,,,,,,,,,,,
885.2852,,,,,,,,lucy_pilot,2024-01-11_13h48.10.726,Mental Fatigue Training Session,2020.2.4,MacIntel,60,,,,,,,,,,,,,,,,,,,,,d,,,,,,,,,,,,,,,,,,,,,,,,,,,,,,,,,,,d,1,2.2407,2,4,24,9,1,nonTarget,L,,,,,,,,,,,,,,,,,,,,,,
889.758,,,,,,,,lucy_pilot,2024-01-11_13h48.10.726,Mental Fatigue Training Session,2020.2.4,MacIntel,60,,,,,,,,,,,,,,,,,,,,,k,,,,,,,,,,,,,,,,,,,,,,,,,,,,,,,,,,,k,1,1.0207,2,5,25,6,1,target,T,,,,,,,,,,,,,,,,,,,,,,
893.013,,,,,,,,lucy_pilot,2024-01-11_13h48.10.726,Mental Fatigue Training Session,2020.2.4,MacIntel,60,,,,,,,,,,,,,,,,,,,,,k,,,,,,,,,,,,,,,,,,,,,,,,,,,,,,,,,,,k,1,1.4108,2,6,26,8,1,target,T,,,,,,,,,,,,,,,,,,,,,,
896.6627,,,,,,,,lucy_pilot,2024-01-11_13h48.10.726,Mental Fatigue Training Session,2020.2.4,MacIntel,60,,,,,,,,,,,,,,,,,,,,,d,,,,,,,,,,,,,,,,,,,,,,,,,,,,,,,,,,,d,1,1.6362,2,7,27,7,1,nonTarget,L,,,,,,,,,,,,,,,,,,,,,,
900.5371,,,,,,,,lucy_pilot,2024-01-11_13h48.10.726,Mental Fatigue Training Session,2020.2.4,MacIntel,60,,,,,,,,,,,,,,,,,,,,,d,,,,,,,,,,,,,,,,,,,,,,,,,,,,,,,,,,,d,1,2.7376,2,8,28,1,1,nonTarget,L,,,,,,,,,,,,,,,,,,,,,,
905.5074,,,,,,,,lucy_pilot,2024-01-11_13h48.10.726,Mental Fatigue Training Session,2020.2.4,MacIntel,60,,,,,,,,,,,,,,,,,,,,,d,,,,,,,,,,,,,,,,,,,,,,,,,,,,,,,,,,,d,1,1.9186,2,9,29,3,1,nonTarget,L,,,,,,,,,,,,,,,,,,,,,,
909.6592,,,,,,,,lucy_pilot,2024-01-11_13h48.10.726,Mental Fatigue Training Session,2020.2.4,MacIntel,60,,,,,,,,,,,,,,,,,,,,,d,,,,,,,,,,,,,,,,,,,,,,,,,,,,,,,,,,,d,1,2.2146,3,0,30,7,1,nonTarget,L,,,,,,,,,,,,,,,,,,,,,,
914.1112,,,,,,,,lucy_pilot,2024-01-11_13h48.10.726,Mental Fatigue Training Session,2020.2.4,MacIntel,60,,,,,,,,,,,,,,,,,,,,,k,,,,,,,,,,,,,,,,,,,,,,,,,,,,,,,,,,,k,1,1.0464,3,1,31,6,1,target,T,,,,,,,,,,,,,,,,,,,,,,
917.3955,,,,,,,,lucy_pilot,2024-01-11_13h48.10.726,Mental Fatigue Training Session,2020.2.4,MacIntel,60,,,,,,,,,,,,,,,,,,,,,k,,,,,,,,,,,,,,,,,,,,,,,,,,,,,,,,,,,k,1,1.0941,3,2,32,2,1,target,T,,,,,,,,,,,,,,,,,,,,,,
920.7328,,,,,,,,lucy_pilot,2024-01-11_13h48.10.726,Mental Fatigue Training Session,2020.2.4,MacIntel,60,,,,,,,,,,,,,,,,,,,,,k,,,,,,,,,,,,,,,,,,,,,,,,,,,,,,,,,,,k,1,1.0801,3,3,33,8,1,target,T,,,,,,,,,,,,,,,,,,,,,,
924.051,,,,,,,,lucy_pilot,2024-01-11_13h48.10.726,Mental Fatigue Training Session,2020.2.4,MacIntel,60,,,,,,,,,,,,,,,,,,,,,d,,,,,,,,,,,,,,,,,,,,,,,,,,,,,,,,,,,d,1,1.1537,3,4,34,3,1,nonTarget,L,,,,,,,,,,,,,,,,,,,,,,
927.435,,,,,,,,lucy_pilot,2024-01-11_13h48.10.726,Mental Fatigue Training Session,2020.2.4,MacIntel,60,,,,,,,,,,,,,,,,,,,,,k,,,,,,,,,,,,,,,,,,,,,,,,,,,,,,,,,,,k,1,0.6867,3,5,35,4,1,target,T,,,,,,,,,,,,,,,,,,,,,,
930.3574,,,,,,,,lucy_pilot,2024-01-11_13h48.10.726,Mental Fatigue Training Session,2020.2.4,MacIntel,60,,,,,,,,,,,,,,,,,,,,,d,,,,,,,,,,,,,,,,,,,,,,,,,,,,,,,,,,,d,1,1.1342,3,6,36,9,1,nonTarget,L,,,,,,,,,,,,,,,,,,,,,,
933.7284,,,,,,,,lucy_pilot,2024-01-11_13h48.10.726,Mental Fatigue Training Session,2020.2.4,MacIntel,60,,,,,,,,,,,,,,,,,,,,,k,,,,,,,,,,,,,,,,,,,,,,,,,,,,,,,,,,,k,1,0.6569,3,7,37,0,1,target,T,,,,,,,,,,,,,,,,,,,,,,
936.6474,,,,,,,,lucy_pilot,2024-01-11_13h48.10.726,Mental Fatigue Training Session,2020.2.4,MacIntel,60,,,,,,,,,,,,,,,,,,,,,d,,,,,,,,,,,,,,,,,,,,,,,,,,,,,,,,,,,d,1,1.4441,3,8,38,5,1,nonTarget,L,,,,,,,,,,,,,,,,,,,,,,
940.3297,,,,,,,,lucy_pilot,2024-01-11_13h48.10.726,Mental Fatigue Training Session,2020.2.4,MacIntel,60,,,,,,,,,,,,,,,,,,,,,d,,,,,,,,,,,,,,,,,,,,,,,,,,,,,,,,,,,d,1,1.6008,3,9,39,1,1,nonTarget,L,,,,,,,,,,,,,,,,,,,,,,
944.1842,,,,,,,,lucy_pilot,2024-01-11_13h48.10.726,Mental Fatigue Training Session,2020.2.4,MacIntel,60,,,,,,,,,,,,,,,,,,,,,d,,,,,,,,,,,,,,,,,,,,,,,,,,,,,,,,,,,d,1,0.8739,4,0,40,9,1,nonTarget,L,,,,,,,,,,,,,,,,,,,,,,
947.3036,,,,,,,,lucy_pilot,2024-01-11_13h48.10.726,Mental Fatigue Training Session,2020.2.4,MacIntel,60,,,,,,,,,,,,,,,,,,,,,k,,,,,,,,,,,,,,,,,,,,,,,,,,,,,,,,,,,k,1,0.7208,4,1,41,6,1,target,T,,,,,,,,,,,,,,,,,,,,,,
950.2546,,,,,,,,lucy_pilot,2024-01-11_13h48.10.726,Mental Fatigue Training Session,2020.2.4,MacIntel,60,,,,,,,,,,,,,,,,,,,,,k,,,,,,,,,,,,,,,,,,,,,,,,,,,,,,,,,,,k,1,1.5675,4,2,42,2,1,target,T,,,,,,,,,,,,,,,,,,,,,,
954.0795,,,,,,,,lucy_pilot,2024-01-11_13h48.10.726,Mental Fatigue Training Session,2020.2.4,MacIntel,60,,,,,,,,,,,,,,,,,,,,,d,,,,,,,,,,,,,,,,,,,,,,,,,,,,,,,,,,,d,1,1.6144,4,3,43,1,1,nonTarget,L,,,,,,,,,,,,,,,,,,,,,,
957.9316,,,,,,,,lucy_pilot,2024-01-11_13h48.10.726,Mental Fatigue Training Session,2020.2.4,MacIntel,60,,,,,,,,,,,,,,,,,,,,,d,,,,,,,,,,,,,,,,,,,,,,,,,,,,,,,,,,,d,1,1.3996,4,4,44,7,1,nonTarget,L,,,,,,,,,,,,,,,,,,,,,,
961.5671,,,,,,,,lucy_pilot,2024-01-11_13h48.10.726,Mental Fatigue Training Session,2020.2.4,MacIntel,60,,,,,,,,,,,,,,,,,,,,,k,,,,,,,,,,,,,,,,,,,,,,,,,,,,,,,,,,,k,1,0.7037,4,5,45,0,1,target,T,,,,,,,,,,,,,,,,,,,,,,
964.5032,,,,,,,,lucy_pilot,2024-01-11_13h48.10.726,Mental Fatigue Training Session,2020.2.4,MacIntel,60,,,,,,,,,,,,,,,,,,,,,k,,,,,,,,,,,,,,,,,,,,,,,,,,,,,,,,,,,k,1,0.8006,4,6,46,8,1,target,T,,,,,,,,,,,,,,,,,,,,,,
967.5375,,,,,,,,lucy_pilot,2024-01-11_13h48.10.726,Mental Fatigue Training Session,2020.2.4,MacIntel,60,,,,,,,,,,,,,,,,,,,,,d,,,,,,,,,,,,,,,,,,,,,,,,,,,,,,,,,,,d,1,2.0372,4,7,47,5,1,nonTarget,L,,,,,,,,,,,,,,,,,,,,,,
971.8082,,,,,,,,lucy_pilot,2024-01-11_13h48.10.726,Mental Fatigue Training Session,2020.2.4,MacIntel,60,,,,,,,,,,,,,,,,,,,,,k,,,,,,,,,,,,,,,,,,,,,,,,,,,,,,,,,,,k,1,0.9023,4,8,48,4,1,target,T,,,,,,,,,,,,,,,,,,,,,,
974.9419,,,,,,,,lucy_pilot,2024-01-11_13h48.10.726,Mental Fatigue Training Session,2020.2.4,MacIntel,60,,,,,,,,,,,,,,,,,,,,,d,,,,,,,,,,,,,,,,,,,,,,,,,,,,,,,,,,,d,1,0.949,4,9,49,3,1,nonTarget,L,,,,,,,,,,,,,,,,,,,,,,
978.1301,,,,,,,,lucy_pilot,2024-01-11_13h48.10.726,Mental Fatigue Training Session,2020.2.4,MacIntel,60,,,,,,,,,,,,,,,,,,,,,k,,,,,,,,,,,,,,,,,,,,,,,,,,,,,,,,,,,k,1,1.286,5,0,50,8,1,target,T,,,,,,,,,,,,,,,,,,,,,,
981.6474,,,,,,,,lucy_pilot,2024-01-11_13h48.10.726,Mental Fatigue Training Session,2020.2.4,MacIntel,60,,,,,,,,,,,,,,,,,,,,,k,,,,,,,,,,,,,,,,,,,,,,,,,,,,,,,,,,,k,1,0.6985,5,1,51,6,1,target,T,,,,,,,,,,,,,,,,,,,,,,
984.5856,,,,,,,,lucy_pilot,2024-01-11_13h48.10.726,Mental Fatigue Training Session,2020.2.4,MacIntel,60,,,,,,,,,,,,,,,,,,,,,d,,,,,,,,,,,,,,,,,,,,,,,,,,,,,,,,,,,d,1,1.4526,5,2,52,9,1,nonTarget,L,,,,,,,,,,,,,,,,,,,,,,
988.2717,,,,,,,,lucy_pilot,2024-01-11_13h48.10.726,Mental Fatigue Training Session,2020.2.4,MacIntel,60,,,,,,,,,,,,,,,,,,,,,k,,,,,,,,,,,,,,,,,,,,,,,,,,,,,,,,,,,k,1,0.5709,5,3,53,4,1,target,T,,,,,,,,,,,,,,,,,,,,,,
991.0737,,,,,,,,lucy_pilot,2024-01-11_13h48.10.726,Mental Fatigue Training Session,2020.2.4,MacIntel,60,,,,,,,,,,,,,,,,,,,,,k,,,,,,,,,,,,,,,,,,,,,,,,,,,,,,,,,,,k,1,0.8026,5,4,54,2,1,target,T,,,,,,,,,,,,,,,,,,,,,,
994.1256,,,,,,,,lucy_pilot,2024-01-11_13h48.10.726,Mental Fatigue Training Session,2020.2.4,MacIntel,60,,,,,,,,,,,,,,,,,,,,,d,,,,,,,,,,,,,,,,,,,,,,,,,,,,,,,,,,,d,1,1.2858,5,5,55,3,1,nonTarget,L,,,,,,,,,,,,,,,,,,,,,,
997.6444,,,,,,,,lucy_pilot,2024-01-11_13h48.10.726,Mental Fatigue Training Session,2020.2.4,MacIntel,60,,,,,,,,,,,,,,,,,,,,,k,,,,,,,,,,,,,,,,,,,,,,,,,,,,,,,,,,,k,1,0.7987,5,6,56,0,1,target,T,,,,,,,,,,,,,,,,,,,,,,
1000.6818,,,,,,,,lucy_pilot,2024-01-11_13h48.10.726,Mental Fatigue Training Session,2020.2.4,MacIntel,60,,,,,,,,,,,,,,,,,,,,,d,,,,,,,,,,,,,,,,,,,,,,,,,,,,,,,,,,,d,1,1.6175,5,7,57,7,1,nonTarget,L,,,,,,,,,,,,,,,,,,,,,,
1004.5546,,,,,,,,lucy_pilot,2024-01-11_13h48.10.726,Mental Fatigue Training Session,2020.2.4,MacIntel,60,,,,,,,,,,,,,,,,,,,,,d,,,,,,,,,,,,,,,,,,,,,,,,,,,,,,,,,,,d,1,1.1179,5,8,58,1,1,nonTarget,L,,,,,,,,,,,,,,,,,,,,,,
1007.9064,,,,,,,,lucy_pilot,2024-01-11_13h48.10.726,Mental Fatigue Training Session,2020.2.4,MacIntel,60,,,,,,,,,,,,,,,,,,,,,d,,,,,,,,,,,,,,,,,,,,,,,,,,,,,,,,,,,d,1,1.4359,5,9,59,5,1,nonTarget,L,,,,,,,,,,,,,,,,,,,,,,
1011.5757,,,,,,,,lucy_pilot,2024-01-11_13h48.10.726,Mental Fatigue Training Session,2020.2.4,MacIntel,60,,,,,,,,,,,,,,,,,,,,,k,,,,,,,,,,,,,,,,,,,,,,,,,,,,,,,,,,,k,1,0.7182,6,0,60,0,1,target,T,,,,,,,,,,,,,,,,,,,,,,
1014.5277,,,,,,,,lucy_pilot,2024-01-11_13h48.10.726,Mental Fatigue Training Session,2020.2.4,MacIntel,60,,,,,,,,,,,,,,,,,,,,,k,,,,,,,,,,,,,,,,,,,,,,,,,,,,,,,,,,,k,1,0.7856,6,1,61,6,1,target,T,,,,,,,,,,,,,,,,,,,,,,
1017.5457,,,,,,,,lucy_pilot,2024-01-11_13h48.10.726,Mental Fatigue Training Session,2020.2.4,MacIntel,60,,,,,,,,,,,,,,,,,,,,,d,,,,,,,,,,,,,,,,,,,,,,,,,,,,,,,,,,,d,1,0.9633,6,2,62,7,1,nonTarget,L,,,,,,,,,,,,,,,,,,,,,,
1020.7484,,,,,,,,lucy_pilot,2024-01-11_13h48.10.726,Mental Fatigue Training Session,2020.2.4,MacIntel,60,,,,,,,,,,,,,,,,,,,,,d,,,,,,,,,,,,,,,,,,,,,,,,,,,,,,,,,,,d,1,1.0841,6,3,63,3,1,nonTarget,L,,,,,,,,,,,,,,,,,,,,,,
1024.0664,,,,,,,,lucy_pilot,2024-01-11_13h48.10.726,Mental Fatigue Training Session,2020.2.4,MacIntel,60,,,,,,,,,,,,,,,,,,,,,k,,,,,,,,,,,,,,,,,,,,,,,,,,,,,,,,,,,k,1,0.6345,6,4,64,4,1,target,T,,,,,,,,,,,,,,,,,,,,,,
1026.9349,,,,,,,,lucy_pilot,2024-01-11_13h48.10.726,Mental Fatigue Training Session,2020.2.4,MacIntel,60,,,,,,,,,,,,,,,,,,,,,k,,,,,,,,,,,,,,,,,,,,,,,,,,,,,,,,,,,k,1,1.0061,6,5,65,2,1,target,T,,,,,,,,,,,,,,,,,,,,,,
1030.1734,,,,,,,,lucy_pilot,2024-01-11_13h48.10.726,Mental Fatigue Training Session,2020.2.4,MacIntel,60,,,,,,,,,,,,,,,,,,,,,d,,,,,,,,,,,,,,,,,,,,,,,,,,,,,,,,,,,d,1,0.9213,6,6,66,1,1,nonTarget,L,,,,,,,,,,,,,,,,,,,,,,
1033.3235,,,,,,,,lucy_pilot,2024-01-11_13h48.10.726,Mental Fatigue Training Session,2020.2.4,MacIntel,60,,,,,,,,,,,,,,,,,,,,,d,,,,,,,,,,,,,,,,,,,,,,,,,,,,,,,,,,,d,1,0.9995,6,7,67,5,1,nonTarget,L,,,,,,,,,,,,,,,,,,,,,,
1036.5634,,,,,,,,lucy_pilot,2024-01-11_13h48.10.726,Mental Fatigue Training Session,2020.2.4,MacIntel,60,,,,,,,,,,,,,,,,,,,,,k,,,,,,,,,,,,,,,,,,,,,,,,,,,,,,,,,,,d,0,1.0241,6,8,68,8,1,target,T,,,,,,,,,,,,,,,,,,,,,,
1039.8143,,,,,,,,lucy_pilot,2024-01-11_13h48.10.726,Mental Fatigue Training Session,2020.2.4,MacIntel,60,,,,,,,,,,,,,,,,,,,,,d,,,,,,,,,,,,,,,,,,,,,,,,,,,,,,,,,,,d,1,1.1368,6,9,69,9,1,nonTarget,L,,,,,,,,,,,,,,,,,,,,,,
1043.1826,,,,,,,,lucy_pilot,2024-01-11_13h48.10.726,Mental Fatigue Training Session,2020.2.4,MacIntel,60,,,,,,,,,,,,,,,,,,,,,k,,,,,,,,,,,,,,,,,,,,,,,,,,,,,,,,,,,k,1,0.6365,7,0,70,4,1,target,T,,,,,,,,,,,,,,,,,,,,,,
1046.0529,,,,,,,,lucy_pilot,2024-01-11_13h48.10.726,Mental Fatigue Training Session,2020.2.4,MacIntel,60,,,,,,,,,,,,,,,,,,,,,d,,,,,,,,,,,,,,,,,,,,,,,,,,,,,,,,,,,k,0,2.8892,7,1,71,9,1,nonTarget,L,,,,,,,,,,,,,,,,,,,,,,
1051.1733,,,,,,,,lucy_pilot,2024-01-11_13h48.10.726,Mental Fatigue Training Session,2020.2.4,MacIntel,60,,,,,,,,,,,,,,,,,,,,,d,,,,,,,,,,,,,,,,,,,,,,,,,,,,,,,,,,,d,1,1.3822,7,2,72,3,1,nonTarget,L,,,,,,,,,,,,,,,,,,,,,,
1054.7965,,,,,,,,lucy_pilot,2024-01-11_13h48.10.726,Mental Fatigue Training Session,2020.2.4,MacIntel,60,,,,,,,,,,,,,,,,,,,,,d,,,,,,,,,,,,,,,,,,,,,,,,,,,,,,,,,,,d,1,1.9983,7,3,73,5,1,nonTarget,L,,,,,,,,,,,,,,,,,,,,,,
1059.0321,,,,,,,,lucy_pilot,2024-01-11_13h48.10.726,Mental Fatigue Training Session,2020.2.4,MacIntel,60,,,,,,,,,,,,,,,,,,,,,k,,,,,,,,,,,,,,,,,,,,,,,,,,,,,,,,,,,k,1,1.2994,7,4,74,2,1,target,T,,,,,,,,,,,,,,,,,,,,,,
1062.5677,,,,,,,,lucy_pilot,2024-01-11_13h48.10.726,Mental Fatigue Training Session,2020.2.4,MacIntel,60,,,,,,,,,,,,,,,,,,,,,k,,,,,,,,,,,,,,,,,,,,,,,,,,,,,,,,,,,k,1,1.4785,7,5,75,6,1,target,T,,,,,,,,,,,,,,,,,,,,,,
1066.2869,,,,,,,,lucy_pilot,2024-01-11_13h48.10.726,Mental Fatigue Training Session,2020.2.4,MacIntel,60,,,,,,,,,,,,,,,,,,,,,k,,,,,,,,,,,,,,,,,,,,,,,,,,,,,,,,,,,k,1,1.1989,7,6,76,8,1,target,T,,,,,,,,,,,,,,,,,,,,,,
1069.7218,,,,,,,,lucy_pilot,2024-01-11_13h48.10.726,Mental Fatigue Training Session,2020.2.4,MacIntel,60,,,,,,,,,,,,,,,,,,,,,d,,,,,,,,,,,,,,,,,,,,,,,,,,,,,,,,,,,d,1,1.4008,7,7,77,7,1,nonTarget,L,,,,,,,,,,,,,,,,,,,,,,
1073.3577,,,,,,,,lucy_pilot,2024-01-11_13h48.10.726,Mental Fatigue Training Session,2020.2.4,MacIntel,60,,,,,,,,,,,,,,,,,,,,,k,,,,,,,,,,,,,,,,,,,,,,,,,,,,,,,,,,,k,1,1.5269,7,8,78,0,1,target,T,,,,,,,,,,,,,,,,,,,,,,
1077.1107,,,,,,,,lucy_pilot,2024-01-11_13h48.10.726,Mental Fatigue Training Session,2020.2.4,MacIntel,60,,,,,,,,,,,,,,,,,,,,,d,,,,,,,,,,,,,,,,,,,,,,,,,,,,,,,,,,,d,1,2.415,7,9,79,1,1,nonTarget,L,,,,,,,,,,,,,,,,,,,,,,
1081.7673,,,,,,,,lucy_pilot,2024-01-11_13h48.10.726,Mental Fatigue Training Session,2020.2.4,MacIntel,60,,,,,,,,,,,,,,,,,,,,,k,,,,,,,,,,,,,,,,,,,,,,,,,,,,,,,,,,,k,1,0.9406,8,0,80,2,1,target,T,,,,,,,,,,,,,,,,,,,,,,
1084.9674,,,,,,,,lucy_pilot,2024-01-11_13h48.10.726,Mental Fatigue Training Session,2020.2.4,MacIntel,60,,,,,,,,,,,,,,,,,,,,,d,,,,,,,,,,,,,,,,,,,,,,,,,,,,,,,,,,,d,1,1.6181,8,1,81,1,1,nonTarget,L,,,,,,,,,,,,,,,,,,,,,,
1088.8372,,,,,,,,lucy_pilot,2024-01-11_13h48.10.726,Mental Fatigue Training Session,2020.2.4,MacIntel,60,,,,,,,,,,,,,,,,,,,,,d,,,,,,,,,,,,,,,,,,,,,,,,,,,,,,,,,,,d,1,0.9553,8,2,82,5,1,nonTarget,L,,,,,,,,,,,,,,,,,,,,,,
1092.0265,,,,,,,,lucy_pilot,2024-01-11_13h48.10.726,Mental Fatigue Training Session,2020.2.4,MacIntel,60,,,,,,,,,,,,,,,,,,,,,k,,,,,,,,,,,,,,,,,,,,,,,,,,,,,,,,,,,k,1,0.7941,8,3,83,8,1,target,T,,,,,,,,,,,,,,,,,,,,,,
1110.3053,,,,,,,,lucy_pilot,2024-01-11_13h48.10.726,Mental Fatigue Training Session,2020.2.4,MacIntel,60,,,,,,,,,,,,,,,,,,,,,,,,,,,,,,,,,,,,,,,,,,,,,,,,,,,,,,,,,,,,,,,,,,6.9981,right,6.9854,right,9.3882,0,0,0,0,1,,,,,,,,,,,,
1121.1447,,,,,,,,lucy_pilot,2024-01-11_13h48.10.726,Mental Fatigue Training Session,2020.2.4,MacIntel,60,,,,,,,,,,,,,,,,,,,,,,,,,,,,,,,,,,,,,,,,,,,,,,,,,,,,,,,,,,,,,,,,,,,,,right,10.8197,1,0,1,0,1,,,,,,,,,,,,
1124.9648,,,,,,,,lucy_pilot,2024-01-11_13h48.10.726,Mental Fatigue Training Session,2020.2.4,MacIntel,60,,,,,,,,,,,,,,,,,,,,,,,,,,,,,,,,,,,,,,,,,,,,,,,,,,,,,,,,,,,,,,,,,,,,,right,3.7991,2,0,2,0,1,,,,,,,,,,,,
1127.6661,,,,,,,,lucy_pilot,2024-01-11_13h48.10.726,Mental Fatigue Training Session,2020.2.4,MacIntel,60,,,,,,,,,,,,,,,,,,,,,,,,,,,,,,,,,,,,,,,,,,,,,,,,,,,,,,,,,,,,,,,,,,,,,right,2.6855,3,0,3,0,1,,,,,,,,,,,,
1136.8076,,,,,,,,lucy_pilot,2024-01-11_13h48.10.726,Mental Fatigue Training Session,2020.2.4,MacIntel,60,,,,,,,,,,,,,,,,,,,,,,,,,,,,,,,,,,,,,,,,,,,,,,,,,,,,,,,,,,,,,,,,,,,,,left,9.1232,4,0,4,0,1,,,,,,,,,,,,
1137.2555,,,,,,,,lucy_pilot,2024-01-11_13h48.10.726,Mental Fatigue Training Session,2020.2.4,MacIntel,60,,,,,,,,,,,,,,,,,,,,,,,,,,,,,,,,,,,,,,,,,,,,,,,,,,,,,,,,,,,,,,,,,,,,,left,0.435,5,0,5,0,1,,,,,,,,,,,,
1137.6906,,,,,,,,lucy_pilot,2024-01-11_13h48.10.726,Mental Fatigue Training Session,2020.2.4,MacIntel,60,,,,,,,,,,,,,,,,,,,,,,,,,,,,,,,,,,,,,,,,,,,,,,,,,,,,,,,,,,,,,,,,,,,,,left,0.4162,6,0,6,0,1,,,,,,,,,,,,
1138.2408,,,,,,,,lucy_pilot,2024-01-11_13h48.10.726,Mental Fatigue Training Session,2020.2.4,MacIntel,60,,,,,,,,,,,,,,,,,,,,,,,,,,,,,,,,,,,,,,,,,,,,,,,,,,,,,,,,,,,,,,,,,,,,,left,0.535,7,0,7,0,1,,,,,,,,,,,,
1139.8268,,,,,,,,lucy_pilot,2024-01-11_13h48.10.726,Mental Fatigue Training Session,2020.2.4,MacIntel,60,,,,,,,,,,,,,,,,,,,,,,,,,,,,,,,,,,,,,,,,,,,,,,,,,,,,,,,,,,,,,,,,,,,,,right,1.5712,8,0,8,0,1,,,,,,,,,,,,
1140.1101,,,,,,,,lucy_pilot,2024-01-11_13h48.10.726,Mental Fatigue Training Session,2020.2.4,MacIntel,60,,,,,,,,,,,,,,,,,,,,,,,,,,,,,,,,,,,,,,,,,,,,,,,,,,,,,,,,,,,,,,,,,,,,,right,0.2601,9,0,9,0,1,,,,,,,,,,,,
1140.3768,,,,,,,,lucy_pilot,2024-01-11_13h48.10.726,Mental Fatigue Training Session,2020.2.4,MacIntel,60,,,,,,,,,,,,,,,,,,,,,,,,,,,,,,,,,,,,,,,,,,,,,,,,,,,,,,,,,,,,,,,,,,,,,right,0.2545,10,0,10,0,1,,,,,,,,,,,,
1140.762,,,,,,,,lucy_pilot,2024-01-11_13h48.10.726,Mental Fatigue Training Session,2020.2.4,MacIntel,60,,,,,,,,,,,,,,,,,,,,,,,,,,,,,,,,,,,,,,,,,,,,,,,,,,,,,,,,,,,,,,,,,,,,,right,0.3671,11,0,11,0,1,,,,,,,,,,,,
1142.165,,,,,,,,lucy_pilot,2024-01-11_13h48.10.726,Mental Fatigue Training Session,2020.2.4,MacIntel,60,,,,,,,,,,,,,,,,,,,,,,,,,,,,,,,,,,,,,,,,,,,,,,,,,,,,,,,,,,,,,,,,,,,,,left,1.3661,12,0,12,0,1,,,,,,,,,,,,
1142.3796,,,,,,,,lucy_pilot,2024-01-11_13h48.10.726,Mental Fatigue Training Session,2020.2.4,MacIntel,60,,,,,,,,,,,,,,,,,,,,,,,,,,,,,,,,,,,,,,,,,,,,,,,,,,,,,,,,,,,,,,,,,,,,,left,0.193,13,0,13,0,1,,,,,,,,,,,,
1142.5133,,,,,,,,lucy_pilot,2024-01-11_13h48.10.726,Mental Fatigue Training Session,2020.2.4,MacIntel,60,,,,,,,,,,,,,,,,,,,,,,,,,,,,,,,,,,,,,,,,,,,,,,,,,,,,,,,,,,,,,,,,,,,,,left,0.1169,14,0,14,0,1,,,,,,,,,,,,
1142.7952,,,,,,,,lucy_pilot,2024-01-11_13h48.10.726,Mental Fatigue Training Session,2020.2.4,MacIntel,60,,,,,,,,,,,,,,,,,,,,,,,,,,,,,,,,,,,,,,,,,,,,,,,,,,,,,,,,,,,,,,,,,,,,,left,0.2583,15,0,15,0,1,,,,,,,,,,,,
1145.2469,,,,,,,,lucy_pilot,2024-01-11_13h48.10.726,Mental Fatigue Training Session,2020.2.4,MacIntel,60,,,,,,,,,,,,,,,,,,,,,,,,,,,,,,,,,,,,,,,,,,,,,,,,,,,,,,,,,,,,,,,,,,,,,right,2.4315,16,0,16,0,1,,,,,,,,,,,,
1145.4797,,,,,,,,lucy_pilot,2024-01-11_13h48.10.726,Mental Fatigue Training Session,2020.2.4,MacIntel,60,,,,,,,,,,,,,,,,,,,,,,,,,,,,,,,,,,,,,,,,,,,,,,,,,,,,,,,,,,,,,,,,,,,,,right,0.2204,17,0,17,0,1,,,,,,,,,,,,
1145.6471,,,,,,,,lucy_pilot,2024-01-11_13h48.10.726,Mental Fatigue Training Session,2020.2.4,MacIntel,60,,,,,,,,,,,,,,,,,,,,,,,,,,,,,,,,,,,,,,,,,,,,,,,,,,,,,,,,,,,,,,,,,,,,,right,0.1521,18,0,18,0,1,,,,,,,,,,,,
1145.8471,,,,,,,,lucy_pilot,2024-01-11_13h48.10.726,Mental Fatigue Training Session,2020.2.4,MacIntel,60,,,,,,,,,,,,,,,,,,,,,,,,,,,,,,,,,,,,,,,,,,,,,,,,,,,,,,,,,,,,,,,,,,,,,right,0.1875,19,0,19,0,1,,,,,,,,,,,,
1146.9306,,,,,,,,lucy_pilot,2024-01-11_13h48.10.726,Mental Fatigue Training Session,2020.2.4,MacIntel,60,,,,,,,,,,,,,,,,,,,,,,,,,,,,,,,,,,,,,,,,,,,,,,,,,,,,,,,,,,,,,,,,,,,,,right,1.0645,20,0,20,0,1,,,,,,,,,,,,
1148.6658,,,,,,,,lucy_pilot,2024-01-11_13h48.10.726,Mental Fatigue Training Session,2020.2.4,MacIntel,60,,,,,,,,,,,,,,,,,,,,,,,,,,,,,,,,,,,,,,,,,,,,,,,,,,,,,,,,,,,,,,,,,,,,,k,1.727,21,0,21,0,1,,,,,,,,,,,,
1151.8827,,,,,,,,lucy_pilot,2024-01-11_13h48.10.726,Mental Fatigue Training Session,2020.2.4,MacIntel,60,,,,,,,,,,,,,,,,,,,,,k,,,,,,,,,,,,,,,,,,,,,,,,,,,,,,,,,,,,,,,,,,,,,,,,,,,,,,,d,0,3.3892,0,0,0,4,1,1_150.jpg,150,,
1157.6005,,,,,,,,lucy_pilot,2024-01-11_13h48.10.726,Mental Fatigue Training Session,2020.2.4,MacIntel,60,,,,,,,,,,,,,,,,,,,,,k,,,,,,,,,,,,,,,,,,,,,,,,,,,,,,,,,,,,,,,,,,,,,,,,,,,,,,,k,1,2.4731,0,1,1,22,1,19_50.jpg,50,,
1162.3863,,,,,,,,lucy_pilot,2024-01-11_13h48.10.726,Mental Fatigue Training Session,2020.2.4,MacIntel,60,,,,,,,,,,,,,,,,,,,,,d,,,,,,,,,,,,,,,,,,,,,,,,,,,,,,,,,,,,,,,,,,,,,,,,,,,,,,,k,0,3.8048,0,2,2,13,1,8_150_R.jpg,150,,
1168.7069,,,,,,,,lucy_pilot,2024-01-11_13h48.10.726,Mental Fatigue Training Session,2020.2.4,MacIntel,60,,,,,,,,,,,,,,,,,,,,,k,,,,,,,,,,,,,,,,,,,,,,,,,,,,,,,,,,,,,,,,,,,,,,,,,,,,,,,k,1,2.4074,0,3,3,92,1,48_150.jpg,150,,
1173.4279,,,,,,,,lucy_pilot,2024-01-11_13h48.10.726,Mental Fatigue Training Session,2020.2.4,MacIntel,60,,,,,,,,,,,,,,,,,,,,,d,,,,,,,,,,,,,,,,,,,,,,,,,,,,,,,,,,,,,,,,,,,,,,,,,,,,,,,d,1,2.4581,0,4,4,71,1,31_50_R.jpg,50,,
1178.1968,,,,,,,,lucy_pilot,2024-01-11_13h48.10.726,Mental Fatigue Training Session,2020.2.4,MacIntel,60,,,,,,,,,,,,,,,,,,,,,d,,,,,,,,,,,,,,,,,,,,,,,,,,,,,,,,,,,,,,,,,,,,,,,,,,,,,,,d,1,3.3621,0,5,5,15,1,8_50_R.jpg,50,,
1183.868,,,,,,,,lucy_pilot,2024-01-11_13h48.10.726,Mental Fatigue Training Session,2020.2.4,MacIntel,60,,,,,,,,,,,,,,,,,,,,,d,,,,,,,,,,,,,,,,,,,,,,,,,,,,,,,,,,,,,,,,,,,,,,,,,,,,,,,d,1,3.3728,0,6,6,55,1,29_50_R.jpg,50,,
1189.5567,,,,,,,,lucy_pilot,2024-01-11_13h48.10.726,Mental Fatigue Training Session,2020.2.4,MacIntel,60,,,,,,,,,,,,,,,,,,,,,k,,,,,,,,,,,,,,,,,,,,,,,,,,,,,,,,,,,,,,,,,,,,,,,,,,,,,,,d,0,1.3733,0,7,7,32,1,23_0.jpg,0,,
1193.2404,,,,,,,,lucy_pilot,2024-01-11_13h48.10.726,Mental Fatigue Training Session,2020.2.4,MacIntel,60,,,,,,,,,,,,,,,,,,,,,d,,,,,,,,,,,,,,,,,,,,,,,,,,,,,,,,,,,,,,,,,,,,,,,,,,,,,,,d,1,1.9626,0,8,8,5,1,1_150_R.jpg,150,,
1197.5122,,,,,,,,lucy_pilot,2024-01-11_13h48.10.726,Mental Fatigue Training Session,2020.2.4,MacIntel,60,,,,,,,,,,,,,,,,,,,,,k,,,,,,,,,,,,,,,,,,,,,,,,,,,,,,,,,,,,,,,,,,,,,,,,,,,,,,,k,1,1.7454,0,9,9,86,1,43_50.jpg,50,,
1201.5645,,,,,,,,lucy_pilot,2024-01-11_13h48.10.726,Mental Fatigue Training Session,2020.2.4,MacIntel,60,,,,,,,,,,,,,,,,,,,,,k,,,,,,,,,,,,,,,,,,,,,,,,,,,,,,,,,,,,,,,,,,,,,,,,,,,,,,,k,1,2.148,0,10,10,16,1,19_0.jpg,0,,
1206.0188,,,,,,,,lucy_pilot,2024-01-11_13h48.10.726,Mental Fatigue Training Session,2020.2.4,MacIntel,60,,,,,,,,,,,,,,,,,,,,,d,,,,,,,,,,,,,,,,,,,,,,,,,,,,,,,,,,,,,,,,,,,,,,,,,,,,,,,d,1,3.0271,0,11,11,25,1,21_0_R.jpg,0,,
1211.362,,,,,,,,lucy_pilot,2024-01-11_13h48.10.726,Mental Fatigue Training Session,2020.2.4,MacIntel,60,,,,,,,,,,,,,,,,,,,,,d,,,,,,,,,,,,,,,,,,,,,,,,,,,,,,,,,,,,,,,,,,,,,,,,,,,,,,,d,1,1.724,0,12,12,33,1,23_0_R.jpg,0,,
1215.3978,,,,,,,,lucy_pilot,2024-01-11_13h48.10.726,Mental Fatigue Training Session,2020.2.4,MacIntel,60,,,,,,,,,,,,,,,,,,,,,k,,,,,,,,,,,,,,,,,,,,,,,,,,,,,,,,,,,,,,,,,,,,,,,,,,,,,,,d,0,2.3865,0,13,13,36,1,23_150.jpg,150,,
1220.1005,,,,,,,,lucy_pilot,2024-01-11_13h48.10.726,Mental Fatigue Training Session,2020.2.4,MacIntel,60,,,,,,,,,,,,,,,,,,,,,k,,,,,,,,,,,,,,,,,,,,,,,,,,,,,,,,,,,,,,,,,,,,,,,,,,,,,,,k,1,3.4917,0,14,14,58,1,30_100.jpg,100,,
1225.9048,,,,,,,,lucy_pilot,2024-01-11_13h48.10.726,Mental Fatigue Training Session,2020.2.4,MacIntel,60,,,,,,,,,,,,,,,,,,,,,k,,,,,,,,,,,,,,,,,,,,,,,,,,,,,,,,,,,,,,,,,,,,,,,,,,,,,,,k,1,3.6604,0,15,15,34,1,23_100.jpg,100,,
1231.8758,,,,,,,,lucy_pilot,2024-01-11_13h48.10.726,Mental Fatigue Training Session,2020.2.4,MacIntel,60,,,,,,,,,,,,,,,,,,,,,k,,,,,,,,,,,,,,,,,,,,,,,,,,,,,,,,,,,,,,,,,,,,,,,,,,,,,,,k,1,1.8205,0,16,16,56,1,30_0.jpg,0,,
1236.0113,,,,,,,,lucy_pilot,2024-01-11_13h48.10.726,Mental Fatigue Training Session,2020.2.4,MacIntel,60,,,,,,,,,,,,,,,,,,,,,k,,,,,,,,,,,,,,,,,,,,,,,,,,,,,,,,,,,,,,,,,,,,,,,,,,,,,,,k,1,3.0368,0,17,17,54,1,29_50.jpg,50,,
1241.3645,,,,,,,,lucy_pilot,2024-01-11_13h48.10.726,Mental Fatigue Training Session,2020.2.4,MacIntel,60,,,,,,,,,,,,,,,,,,,,,k,,,,,,,,,,,,,,,,,,,,,,,,,,,,,,,,,,,,,,,,,,,,,,,,,,,,,,,k,1,1.4046,0,18,18,6,1,1_50.jpg,50,,
1245.0849,,,,,,,,lucy_pilot,2024-01-11_13h48.10.726,Mental Fatigue Training Session,2020.2.4,MacIntel,60,,,,,,,,,,,,,,,,,,,,,d,,,,,,,,,,,,,,,,,,,,,,,,,,,,,,,,,,,,,,,,,,,,,,,,,,,,,,,d,1,2.08,0,19,19,43,1,25_100_R.jpg,100,,
1249.4715,,,,,,,,lucy_pilot,2024-01-11_13h48.10.726,Mental Fatigue Training Session,2020.2.4,MacIntel,60,,,,,,,,,,,,,,,,,,,,,d,,,,,,,,,,,,,,,,,,,,,,,,,,,,,,,,,,,,,,,,,,,,,,,,,,,,,,,d,1,2.2136,0,20,20,83,1,43_100_R.jpg,100,,
1253.9901,,,,,,,,lucy_pilot,2024-01-11_13h48.10.726,Mental Fatigue Training Session,2020.2.4,MacIntel,60,,,,,,,,,,,,,,,,,,,,,d,,,,,,,,,,,,,,,,,,,,,,,,,,,,,,,,,,,,,,,,,,,,,,,,,,,,,,,d,1,2.7742,0,21,21,77,1,39_150_R.jpg,150,,
1259.0829,,,,,,,,lucy_pilot,2024-01-11_13h48.10.726,Mental Fatigue Training Session,2020.2.4,MacIntel,60,,,,,,,,,,,,,,,,,,,,,d,,,,,,,,,,,,,,,,,,,,,,,,,,,,,,,,,,,,,,,,,,,,,,,,,,,,,,,d,1,2.3123,0,22,22,69,1,31_150_R.jpg,150,,
1263.7055,,,,,,,,lucy_pilot,2024-01-11_13h48.10.726,Mental Fatigue Training Session,2020.2.4,MacIntel,60,,,,,,,,,,,,,,,,,,,,,d,,,,,,,,,,,,,,,,,,,,,,,,,,,,,,,,,,,,,,,,,,,,,,,,,,,,,,,d,1,2.2254,0,23,23,89,1,48_0_R.jpg,0,,
1268.2402,,,,,,,,lucy_pilot,2024-01-11_13h48.10.726,Mental Fatigue Training Session,2020.2.4,MacIntel,60,,,,,,,,,,,,,,,,,,,,,k,,,,,,,,,,,,,,,,,,,,,,,,,,,,,,,,,,,,,,,,,,,,,,,,,,,,,,,k,1,1.3603,0,24,24,18,1,19_100.jpg,100,,
1271.9115,,,,,,,,lucy_pilot,2024-01-11_13h48.10.726,Mental Fatigue Training Session,2020.2.4,MacIntel,60,,,,,,,,,,,,,,,,,,,,,k,,,,,,,,,,,,,,,,,,,,,,,,,,,,,,,,,,,,,,,,,,,,,,,,,,,,,,,k,1,1.2502,0,25,25,24,1,21_0.jpg,0,,
1275.4794,,,,,,,,lucy_pilot,2024-01-11_13h48.10.726,Mental Fatigue Training Session,2020.2.4,MacIntel,60,,,,,,,,,,,,,,,,,,,,,k,,,,,,,,,,,,,,,,,,,,,,,,,,,,,,,,,,,,,,,,,,,,,,,,,,,,,,,d,0,2.3719,0,26,26,28,1,21_150.jpg,150,,
1280.1657,,,,,,,,lucy_pilot,2024-01-11_13h48.10.726,Mental Fatigue Training Session,2020.2.4,MacIntel,60,,,,,,,,,,,,,,,,,,,,,d,,,,,,,,,,,,,,,,,,,,,,,,,,,,,,,,,,,,,,,,,,,,,,,,,,,,,,,d,1,1.4537,0,27,27,1,1,1_0_R.jpg,0,,
1283.9345,,,,,,,,lucy_pilot,2024-01-11_13h48.10.726,Mental Fatigue Training Session,2020.2.4,MacIntel,60,,,,,,,,,,,,,,,,,,,,,d,,,,,,,,,,,,,,,,,,,,,,,,,,,,,,,,,,,,,,,,,,,,,,,,,,,,,,,k,0,2.7222,0,28,28,7,1,1_50_R.jpg,50,,
1288.9708,,,,,,,,lucy_pilot,2024-01-11_13h48.10.726,Mental Fatigue Training Session,2020.2.4,MacIntel,60,,,,,,,,,,,,,,,,,,,,,k,,,,,,,,,,,,,,,,,,,,,,,,,,,,,,,,,,,,,,,,,,,,,,,,,,,,,,,k,1,2.8947,0,29,29,72,1,39_0.jpg,0,,
1294.1756,,,,,,,,lucy_pilot,2024-01-11_13h48.10.726,Mental Fatigue Training Session,2020.2.4,MacIntel,60,,,,,,,,,,,,,,,,,,,,,d,,,,,,,,,,,,,,,,,,,,,,,,,,,,,,,,,,,,,,,,,,,,,,,,,,,,,,,d,1,2.2649,0,30,30,59,1,30_100_R.jpg,100,,
1298.7454,,,,,,,,lucy_pilot,2024-01-11_13h48.10.726,Mental Fatigue Training Session,2020.2.4,MacIntel,60,,,,,,,,,,,,,,,,,,,,,k,,,,,,,,,,,,,,,,,,,,,,,,,,,,,,,,,,,,,,,,,,,,,,,,,,,,,,,k,1,3.3004,0,31,31,64,1,31_0.jpg,0,,
1304.3618,,,,,,,,lucy_pilot,2024-01-11_13h48.10.726,Mental Fatigue Training Session,2020.2.4,MacIntel,60,,,,,,,,,,,,,,,,,,,,,d,,,,,,,,,,,,,,,,,,,,,,,,,,,,,,,,,,,,,,,,,,,,,,,,,,,,,,,d,1,2.0314,0,32,32,37,1,23_150_R.jpg,150,,
1308.7033,,,,,,,,lucy_pilot,2024-01-11_13h48.10.726,Mental Fatigue Training Session,2020.2.4,MacIntel,60,,,,,,,,,,,,,,,,,,,,,k,,,,,,,,,,,,,,,,,,,,,,,,,,,,,,,,,,,,,,,,,,,,,,,,,,,,,,,k,1,0.9108,0,33,33,8,1,8_0.jpg,0,,
1311.922,,,,,,,,lucy_pilot,2024-01-11_13h48.10.726,Mental Fatigue Training Session,2020.2.4,MacIntel,60,,,,,,,,,,,,,,,,,,,,,d,,,,,,,,,,,,,,,,,,,,,,,,,,,,,,,,,,,,,,,,,,,,,,,,,,,,,,,k,0,4.3821,0,34,34,87,1,43_50_R.jpg,50,,
1318.617,,,,,,,,lucy_pilot,2024-01-11_13h48.10.726,Mental Fatigue Training Session,2020.2.4,MacIntel,60,,,,,,,,,,,,,,,,,,,,,d,,,,,,,,,,,,,,,,,,,,,,,,,,,,,,,,,,,,,,,,,,,,,,,,,,,,,,,d,1,2.6542,0,35,35,79,1,39_50_R.jpg,50,,
1323.5864,,,,,,,,lucy_pilot,2024-01-11_13h48.10.726,Mental Fatigue Training Session,2020.2.4,MacIntel,60,,,,,,,,,,,,,,,,,,,,,k,,,,,,,,,,,,,,,,,,,,,,,,,,,,,,,,,,,,,,,,,,,,,,,,,,,,,,,k,1,1.5718,0,36,36,88,1,48_0.jpg,0,,
1327.4729,,,,,,,,lucy_pilot,2024-01-11_13h48.10.726,Mental Fatigue Training Session,2020.2.4,MacIntel,60,,,,,,,,,,,,,,,,,,,,,d,,,,,,,,,,,,,,,,,,,,,,,,,,,,,,,,,,,,,,,,,,,,,,,,,,,,,,,d,1,3.8561,0,37,37,73,1,39_0_R.jpg,0,,
1333.6413,,,,,,,,lucy_pilot,2024-01-11_13h48.10.726,Mental Fatigue Training Session,2020.2.4,MacIntel,60,,,,,,,,,,,,,,,,,,,,,d,,,,,,,,,,,,,,,,,,,,,,,,,,,,,,,,,,,,,,,,,,,,,,,,,,,,,,,d,1,2.2394,0,38,38,75,1,39_100_R.jpg,100,,
1338.1959,,,,,,,,lucy_pilot,2024-01-11_13h48.10.726,Mental Fatigue Training Session,2020.2.4,MacIntel,60,,,,,,,,,,,,,,,,,,,,,k,,,,,,,,,,,,,,,,,,,,,,,,,,,,,,,,,,,,,,,,,,,,,,,,,,,,,,,k,1,1.4877,0,39,39,70,1,31_50.jpg,50,,
1342.0007,,,,,,,,lucy_pilot,2024-01-11_13h48.10.726,Mental Fatigue Training Session,2020.2.4,MacIntel,60,,,,,,,,,,,,,,,,,,,,,k,,,,,,,,,,,,,,,,,,,,,,,,,,,,,,,,,,,,,,,,,,,,,,,,,,,,,,,k,1,1.501,0,40,40,10,1,8_100.jpg,100,,
1345.8187,,,,,,,,lucy_pilot,2024-01-11_13h48.10.726,Mental Fatigue Training Session,2020.2.4,MacIntel,60,,,,,,,,,,,,,,,,,,,,,d,,,,,,,,,,,,,,,,,,,,,,,,,,,,,,,,,,,,,,,,,,,,,,,,,,,,,,,d,1,2.1469,0,41,41,41,1,25_0_R.jpg,0,,
1350.272,,,,,,,,lucy_pilot,2024-01-11_13h48.10.726,Mental Fatigue Training Session,2020.2.4,MacIntel,60,,,,,,,,,,,,,,,,,,,,,d,,,,,,,,,,,,,,,,,,,,,,,,,,,,,,,,,,,,,,,,,,,,,,,,,,,,,,,d,1,1.8786,0,42,42,11,1,8_100_R.jpg,100,,
1354.4569,,,,,,,,lucy_pilot,2024-01-11_13h48.10.726,Mental Fatigue Training Session,2020.2.4,MacIntel,60,,,,,,,,,,,,,,,,,,,,,d,,,,,,,,,,,,,,,,,,,,,,,,,,,,,,,,,,,,,,,,,,,,,,,,,,,,,,,d,1,3.3117,0,43,43,67,1,31_100_R.jpg,100,,
1360.0871,,,,,,,,lucy_pilot,2024-01-11_13h48.10.726,Mental Fatigue Training Session,2020.2.4,MacIntel,60,,,,,,,,,,,,,,,,,,,,,d,,,,,,,,,,,,,,,,,,,,,,,,,,,,,,,,,,,,,,,,,,,,,,,,,,,,,,,d,1,1.9208,0,44,44,17,1,19_0_R.jpg,0,,
1364.3233,,,,,,,,lucy_pilot,2024-01-11_13h48.10.726,Mental Fatigue Training Session,2020.2.4,MacIntel,60,,,,,,,,,,,,,,,,,,,,,k,,,,,,,,,,,,,,,,,,,,,,,,,,,,,,,,,,,,,,,,,,,,,,,,,,,,,,,k,1,3.1691,0,45,45,50,1,29_100.jpg,100,,
1369.8103,,,,,,,,lucy_pilot,2024-01-11_13h48.10.726,Mental Fatigue Training Session,2020.2.4,MacIntel,60,,,,,,,,,,,,,,,,,,,,,d,,,,,,,,,,,,,,,,,,,,,,,,,,,,,,,,,,,,,,,,,,,,,,,,,,,,,,,d,1,1.9344,0,46,46,39,1,23_50_R.jpg,50,,
1374.0616,,,,,,,,lucy_pilot,2024-01-11_13h48.10.726,Mental Fatigue Training Session,2020.2.4,MacIntel,60,,,,,,,,,,,,,,,,,,,,,d,,,,,,,,,,,,,,,,,,,,,,,,,,,,,,,,,,,,,,,,,,,,,,,,,,,,,,,d,1,1.2372,0,47,47,57,1,30_0_R.jpg,0,,
1377.6131,,,,,,,,lucy_pilot,2024-01-11_13h48.10.726,Mental Fatigue Training Session,2020.2.4,MacIntel,60,,,,,,,,,,,,,,,,,,,,,d,,,,,,,,,,,,,,,,,,,,,,,,,,,,,,,,,,,,,,,,,,,,,,,,,,,,,,,d,1,1.6018,0,48,48,19,1,19_100_R.jpg,100,,
1381.5337,,,,,,,,lucy_pilot,2024-01-11_13h48.10.726,Mental Fatigue Training Session,2020.2.4,MacIntel,60,,,,,,,,,,,,,,,,,,,,,d,,,,,,,,,,,,,,,,,,,,,,,,,,,,,,,,,,,,,,,,,,,,,,,,,,,,,,,k,0,1.6379,0,49,49,47,1,25_50_R.jpg,50,,
1385.4851,,,,,,,,lucy_pilot,2024-01-11_13h48.10.726,Mental Fatigue Training Session,2020.2.4,MacIntel,60,,,,,,,,,,,,,,,,,,,,,d,,,,,,,,,,,,,,,,,,,,,,,,,,,,,,,,,,,,,,,,,,,,,,,,,,,,,,,k,0,2.9375,0,50,50,63,1,30_50_R.jpg,50,,
1390.7392,,,,,,,,lucy_pilot,2024-01-11_13h48.10.726,Mental Fatigue Training Session,2020.2.4,MacIntel,60,,,,,,,,,,,,,,,,,,,,,k,,,,,,,,,,,,,,,,,,,,,,,,,,,,,,,,,,,,,,,,,,,,,,,,,,,,,,,k,1,2.1891,0,51,51,60,1,30_150.jpg,150,,
1395.2433,,,,,,,,lucy_pilot,2024-01-11_13h48.10.726,Mental Fatigue Training Session,2020.2.4,MacIntel,60,,,,,,,,,,,,,,,,,,,,,d,,,,,,,,,,,,,,,,,,,,,,,,,,,,,,,,,,,,,,,,,,,,,,,,,,,,,,,d,1,1.8958,0,52,52,3,1,1_100_R.jpg,100,,
1399.4449,,,,,,,,lucy_pilot,2024-01-11_13h48.10.726,Mental Fatigue Training Session,2020.2.4,MacIntel,60,,,,,,,,,,,,,,,,,,,,,k,,,,,,,,,,,,,,,,,,,,,,,,,,,,,,,,,,,,,,,,,,,,,,,,,,,,,,,k,1,1.9305,0,53,53,38,1,23_50.jpg,50,,
1403.6852,,,,,,,,lucy_pilot,2024-01-11_13h48.10.726,Mental Fatigue Training Session,2020.2.4,MacIntel,60,,,,,,,,,,,,,,,,,,,,,k,,,,,,,,,,,,,,,,,,,,,,,,,,,,,,,,,,,,,,,,,,,,,,,,,,,,,,,k,1,1.2042,0,54,54,0,1,1_0.jpg,0,,
1407.2004,,,,,,,,lucy_pilot,2024-01-11_13h48.10.726,Mental Fatigue Training Session,2020.2.4,MacIntel,60,,,,,,,,,,,,,,,,,,,,,k,,,,,,,,,,,,,,,,,,,,,,,,,,,,,,,,,,,,,,,,,,,,,,,,,,,,,,,d,0,2.0983,0,55,55,62,1,30_50.jpg,50,,
1411.6079,,,,,,,,lucy_pilot,2024-01-11_13h48.10.726,Mental Fatigue Training Session,2020.2.4,MacIntel,60,,,,,,,,,,,,,,,,,,,,,d,,,,,,,,,,,,,,,,,,,,,,,,,,,,,,,,,,,,,,,,,,,,,,,,,,,,,,,d,1,1.4056,0,56,56,51,1,29_100_R.jpg,100,,
1415.3313,,,,,,,,lucy_pilot,2024-01-11_13h48.10.726,Mental Fatigue Training Session,2020.2.4,MacIntel,60,,,,,,,,,,,,,,,,,,,,,d,,,,,,,,,,,,,,,,,,,,,,,,,,,,,,,,,,,,,,,,,,,,,,,,,,,,,,,d,1,1.7556,0,57,57,95,1,48_50_R.jpg,50,,
1419.4006,,,,,,,,lucy_pilot,2024-01-11_13h48.10.726,Mental Fatigue Training Session,2020.2.4,MacIntel,60,,,,,,,,,,,,,,,,,,,,,d,,,,,,,,,,,,,,,,,,,,,,,,,,,,,,,,,,,,,,,,,,,,,,,,,,,,,,,d,1,2.5045,0,58,58,27,1,21_100_R.jpg,100,,
1424.219,,,,,,,,lucy_pilot,2024-01-11_13h48.10.726,Mental Fatigue Training Session,2020.2.4,MacIntel,60,,,,,,,,,,,,,,,,,,,,,d,,,,,,,,,,,,,,,,,,,,,,,,,,,,,,,,,,,,,,,,,,,,,,,,,,,,,,,k,0,1.8712,0,59,59,23,1,19_50_R.jpg,50,,
1428.4062,,,,,,,,lucy_pilot,2024-01-11_13h48.10.726,Mental Fatigue Training Session,2020.2.4,MacIntel,60,,,,,,,,,,,,,,,,,,,,,k,,,,,,,,,,,,,,,,,,,,,,,,,,,,,,,,,,,,,,,,,,,,,,,,,,,,,,,k,1,2.3682,0,60,60,90,1,48_100.jpg,100,,
1433.0913,,,,,,,,lucy_pilot,2024-01-11_13h48.10.726,Mental Fatigue Training Session,2020.2.4,MacIntel,60,,,,,,,,,,,,,,,,,,,,,k,,,,,,,,,,,,,,,,,,,,,,,,,,,,,,,,,,,,,,,,,,,,,,,,,,,,,,,k,1,2.2194,0,61,61,40,1,25_0.jpg,0,,
1437.6299,,,,,,,,lucy_pilot,2024-01-11_13h48.10.726,Mental Fatigue Training Session,2020.2.4,MacIntel,60,,,,,,,,,,,,,,,,,,,,,k,,,,,,,,,,,,,,,,,,,,,,,,,,,,,,,,,,,,,,,,,,,,,,,,,,,,,,,k,1,4.1369,0,62,62,46,1,25_50.jpg,50,,
1444.0833,,,,,,,,lucy_pilot,2024-01-11_13h48.10.726,Mental Fatigue Training Session,2020.2.4,MacIntel,60,,,,,,,,,,,,,,,,,,,,,k,,,,,,,,,,,,,,,,,,,,,,,,,,,,,,,,,,,,,,,,,,,,,,,,,,,,,,,k,1,1.575,0,63,63,42,1,25_100.jpg,100,,
1447.9699,,,,,,,,lucy_pilot,2024-01-11_13h48.10.726,Mental Fatigue Training Session,2020.2.4,MacIntel,60,,,,,,,,,,,,,,,,,,,,,d,,,,,,,,,,,,,,,,,,,,,,,,,,,,,,,,,,,,,,,,,,,,,,,,,,,,,,,d,1,2.5977,0,64,64,61,1,30_150_R.jpg,150,,
1452.8663,,,,,,,,lucy_pilot,2024-01-11_13h48.10.726,Mental Fatigue Training Session,2020.2.4,MacIntel,60,,,,,,,,,,,,,,,,,,,,,d,,,,,,,,,,,,,,,,,,,,,,,,,,,,,,,,,,,,,,,,,,,,,,,,,,,,,,,d,1,3.8859,0,65,65,45,1,25_150_R.jpg,150,,
1487.5979,,,,,,,,lucy_pilot,2024-01-11_13h48.10.726,Mental Fatigue Training Session,2020.2.4,MacIntel,60,,,,,,,,,,,,,,,,,,,,,,,,,,,,,,,,,,,,,,,,,,,,,,,,,,,,,,,,,,,,,,,,,,,,,,,,,,,,,,,,,,,,,,space,29.6947
