elapsed.time,key_resp.keys,key_resp.rt,instrLoop.thisRepN,instrLoop.thisTrialN,instrLoop.thisN,instrLoop.thisIndex,instrLoop.ran,participant,date,expName,psychopyVersion,OS,frameRate,key_resp_2.keys,key_resp_2.rt,instrAXCPTLoop.thisRepN,instrAXCPTLoop.thisTrialN,instrAXCPTLoop.thisN,instrAXCPTLoop.thisIndex,instrAXCPTLoop.ran,AXCPT_resp.keys,AXCPT_resp.corr,AXCPT_resp.rt,AXCPTtrialsLoop.thisRepN,AXCPTtrialsLoop.thisTrialN,AXCPTtrialsLoop.thisN,AXCPTtrialsLoop.thisIndex,AXCPTtrialsLoop.ran,trialNumber,trial,cueType,probeType,trialType,corrResponse,break1.duration,restBreak1_key_resp.keys,restBreak1_key_resp.rt,key_resp_3.keys,key_resp_3.rt,instrNBackLoop.thisRepN,instrNBackLoop.thisTrialN,instrNBackLoop.thisN,instrNBackLoop.thisIndex,instrNBackLoop.ran,NBack_resp_1.keys,NBack_resp_1.rt,NBackTargetLoop.thisRepN,NBackTargetLoop.thisTrialN,NBackTargetLoop.thisN,NBackTargetLoop.thisIndex,NBackTargetLoop.ran,NBack_resp_2.keys,NBack_resp_2.corr,NBack_resp_2.rt,NBackTrialsLoop.thisRepN,NBackTrialsLoop.thisTrialN,NBackTrialsLoop.thisN,NBackTrialsLoop.thisIndex,NBackTrialsLoop.ran,break2.duration,restBreak2_key_resp.keys,restBreak2_key_resp.rt,key_resp_4.keys,key_resp_4.rt,instrSearchLoop.thisRepN,instrSearchLoop.thisTrialN,instrSearchLoop.thisN,instrSearchLoop.thisIndex,instrSearchLoop.ran,key_resp_6.keys,key_resp_6.corr,key_resp_6.rt,searchLoop.thisRepN,searchLoop.thisTrialN,searchLoop.thisN,searchLoop.thisIndex,searchLoop.ran,cond,targetLetter,break3.duration,restBreak3_key_resp.keys,restBreak3_key_resp.rt,key_resp_5.keys,key_resp_5.rt,instrMentRotaLoop.thisRepN,instrMentRotaLoop.thisTrialN,instrMentRotaLoop.thisN,instrMentRotaLoop.thisIndex,instrMentRotaLoop.ran,MROT_resp.keys,MROT_resp.corr,MROT_resp.rt,mentRotTrialsLooop.thisRepN,mentRotTrialsLooop.thisTrialN,mentRotTrialsLooop.thisN,mentRotTrialsLooop.thisIndex,mentRotTrialsLooop.ran,imagefile,orientation,end_resp.keys,end_resp.rt
6.13,right,5.975,0,0,0,0,1,Nic,2024-01-18_19h45.54.318,Mental Fatigue Training Session,2020.2.4,MacIntel,60,,,,,,,,,,,,,,,,,,,,,,,,,,,,,,,,,,,,,,,,,,,,,,,,,,,,,,,,,,,,,,,,,,,,,,,,,,,,,,,,,,,,,,,,
9.264,right,3.09,1,0,1,0,1,Nic,2024-01-18_19h45.54.318,Mental Fatigue Training Session,2020.2.4,MacIntel,60,,,,,,,,,,,,,,,,,,,,,,,,,,,,,,,,,,,,,,,,,,,,,,,,,,,,,,,,,,,,,,,,,,,,,,,,,,,,,,,,,,,,,,,,
12.948,right,3.655,2,0,2,0,1,Nic,2024-01-18_19h45.54.318,Mental Fatigue Training Session,2020.2.4,MacIntel,60,,,,,,,,,,,,,,,,,,,,,,,,,,,,,,,,,,,,,,,,,,,,,,,,,,,,,,,,,,,,,,,,,,,,,,,,,,,,,,,,,,,,,,,,
22.631,,,,,,,,Nic,2024-01-18_19h45.54.318,Mental Fatigue Training Session,2020.2.4,MacIntel,60,right,9.636,0,0,0,0,1,,,,,,,,,,,,,,,,,,,,,,,,,,,,,,,,,,,,,,,,,,,,,,,,,,,,,,,,,,,,,,,,,,,,,,,,,,,,,,,,,
45.497,,,,,,,,Nic,2024-01-18_19h45.54.318,Mental Fatigue Training Session,2020.2.4,MacIntel,60,right,22.833,1,0,1,0,1,,,,,,,,,,,,,,,,,,,,,,,,,,,,,,,,,,,,,,,,,,,,,,,,,,,,,,,,,,,,,,,,,,,,,,,,,,,,,,,,,
52.263,,,,,,,,Nic,2024-01-18_19h45.54.318,Mental Fatigue Training Session,2020.2.4,MacIntel,60,right,6.73,2,0,2,0,1,,,,,,,,,,,,,,,,,,,,,,,,,,,,,,,,,,,,,,,,,,,,,,,,,,,,,,,,,,,,,,,,,,,,,,,,,,,,,,,,,
54.48,,,,,,,,Nic,2024-01-18_19h45.54.318,Mental Fatigue Training Session,2020.2.4,MacIntel,60,right,2.203,3,0,3,0,1,,,,,,,,,,,,,,,,,,,,,,,,,,,,,,,,,,,,,,,,,,,,,,,,,,,,,,,,,,,,,,,,,,,,,,,,,,,,,,,,,
57.479,,,,,,,,Nic,2024-01-18_19h45.54.318,Mental Fatigue Training Session,2020.2.4,MacIntel,60,k,2.983,4,0,4,0,1,,,,,,,,,,,,,,,,,,,,,,,,,,,,,,,,,,,,,,,,,,,,,,,,,,,,,,,,,,,,,,,,,,,,,,,,,,,,,,,,,
58.696,,,,,,,,Nic,2024-01-18_19h45.54.318,Mental Fatigue Training Session,2020.2.4,MacIntel,60,,,,,,,,k,1,0.583,0,0,0,0,1,1,AX,A,X,target,k,,,,,,,,,,,,,,,,,,,,,,,,,,,,,,,,,,,,,,,,,,,,,,,,,,,,,,,,,,,,,,,,,,,
65.996,,,,,,,,Nic,2024-01-18_19h45.54.318,Mental Fatigue Training Session,2020.2.4,MacIntel,60,,,,,,,,k,1,0.467,0,1,1,3,1,4,AX,A,X,target,k,,,,,,,,,,,,,,,,,,,,,,,,,,,,,,,,,,,,,,,,,,,,,,,,,,,,,,,,,,,,,,,,,,,
73.18,,,,,,,,Nic,2024-01-18_19h45.54.318,Mental Fatigue Training Session,2020.2.4,MacIntel,60,,,,,,,,k,1,0.384,0,2,2,6,1,7,AX,A,X,target,k,,,,,,,,,,,,,,,,,,,,,,,,,,,,,,,,,,,,,,,,,,,,,,,,,,,,,,,,,,,,,,,,,,,
80.28,,,,,,,,Nic,2024-01-18_19h45.54.318,Mental Fatigue Training Session,2020.2.4,MacIntel,60,,,,,,,,d,1,0.264,0,3,3,9,1,10,BY,B,Y,bothWrong,d,,,,,,,,,,,,,,,,,,,,,,,,,,,,,,,,,,,,,,,,,,,,,,,,,,,,,,,,,,,,,,,,,,,
87.262,,,,,,,,Nic,2024-01-18_19h45.54.318,Mental Fatigue Training Session,2020.2.4,MacIntel,60,,,,,,,,d,1,0.449,0,4,4,8,1,9,AY,A,Y,cueWrong,d,,,,,,,,,,,,,,,,,,,,,,,,,,,,,,,,,,,,,,,,,,,,,,,,,,,,,,,,,,,,,,,,,,,
94.429,,,,,,,,Nic,2024-01-18_19h45.54.318,Mental Fatigue Training Session,2020.2.4,MacIntel,60,,,,,,,,k,1,0.334,0,5,5,4,1,5,AX,A,X,target,k,,,,,,,,,,,,,,,,,,,,,,,,,,,,,,,,,,,,,,,,,,,,,,,,,,,,,,,,,,,,,,,,,,,
101.48,,,,,,,,Nic,2024-01-18_19h45.54.318,Mental Fatigue Training Session,2020.2.4,MacIntel,60,,,,,,,,k,1,0.318,0,6,6,5,1,6,AX,A,X,target,k,,,,,,,,,,,,,,,,,,,,,,,,,,,,,,,,,,,,,,,,,,,,,,,,,,,,,,,,,,,,,,,,,,,
108.513,,,,,,,,Nic,2024-01-18_19h45.54.318,Mental Fatigue Training Session,2020.2.4,MacIntel,60,,,,,,,,k,1,0.334,0,7,7,1,1,2,AX,A,X,target,k,,,,,,,,,,,,,,,,,,,,,,,,,,,,,,,,,,,,,,,,,,,,,,,,,,,,,,,,,,,,,,,,,,,
115.562,,,,,,,,Nic,2024-01-18_19h45.54.318,Mental Fatigue Training Session,2020.2.4,MacIntel,60,,,,,,,,k,1,0.301,0,8,8,2,1,3,AX,A,X,target,k,,,,,,,,,,,,,,,,,,,,,,,,,,,,,,,,,,,,,,,,,,,,,,,,,,,,,,,,,,,,,,,,,,,
122.579,,,,,,,,Nic,2024-01-18_19h45.54.318,Mental Fatigue Training Session,2020.2.4,MacIntel,60,,,,,,,,d,1,0.468,0,9,9,7,1,8,BX,B,X,probeWrong,d,,,,,,,,,,,,,,,,,,,,,,,,,,,,,,,,,,,,,,,,,,,,,,,,,,,,,,,,,,,,,,,,,,,
129.762,,,,,,,,Nic,2024-01-18_19h45.54.318,Mental Fatigue Training Session,2020.2.4,MacIntel,60,,,,,,,,k,1,0.333,1,0,10,1,1,2,AX,A,X,target,k,,,,,,,,,,,,,,,,,,,,,,,,,,,,,,,,,,,,,,,,,,,,,,,,,,,,,,,,,,,,,,,,,,,
136.812,,,,,,,,Nic,2024-01-18_19h45.54.318,Mental Fatigue Training Session,2020.2.4,MacIntel,60,,,,,,,,,0,,1,1,11,3,1,4,AX,A,X,target,k,,,,,,,,,,,,,,,,,,,,,,,,,,,,,,,,,,,,,,,,,,,,,,,,,,,,,,,,,,,,,,,,,,,
145.011,,,,,,,,Nic,2024-01-18_19h45.54.318,Mental Fatigue Training Session,2020.2.4,MacIntel,60,,,,,,,,,0,,1,2,12,8,1,9,AY,A,Y,cueWrong,d,,,,,,,,,,,,,,,,,,,,,,,,,,,,,,,,,,,,,,,,,,,,,,,,,,,,,,,,,,,,,,,,,,,
153.212,,,,,,,,Nic,2024-01-18_19h45.54.318,Mental Fatigue Training Session,2020.2.4,MacIntel,60,,,,,,,,,0,,1,3,13,2,1,3,AX,A,X,target,k,,,,,,,,,,,,,,,,,,,,,,,,,,,,,,,,,,,,,,,,,,,,,,,,,,,,,,,,,,,,,,,,,,,
161.412,,,,,,,,Nic,2024-01-18_19h45.54.318,Mental Fatigue Training Session,2020.2.4,MacIntel,60,,,,,,,,,0,,1,4,14,7,1,8,BX,B,X,probeWrong,d,,,,,,,,,,,,,,,,,,,,,,,,,,,,,,,,,,,,,,,,,,,,,,,,,,,,,,,,,,,,,,,,,,,
169.611,,,,,,,,Nic,2024-01-18_19h45.54.318,Mental Fatigue Training Session,2020.2.4,MacIntel,60,,,,,,,,,0,,1,5,15,5,1,6,AX,A,X,target,k,,,,,,,,,,,,,,,,,,,,,,,,,,,,,,,,,,,,,,,,,,,,,,,,,,,,,,,,,,,,,,,,,,,
177.812,,,,,,,,Nic,2024-01-18_19h45.54.318,Mental Fatigue Training Session,2020.2.4,MacIntel,60,,,,,,,,,0,,1,6,16,6,1,7,AX,A,X,target,k,,,,,,,,,,,,,,,,,,,,,,,,,,,,,,,,,,,,,,,,,,,,,,,,,,,,,,,,,,,,,,,,,,,
186.011,,,,,,,,Nic,2024-01-18_19h45.54.318,Mental Fatigue Training Session,2020.2.4,MacIntel,60,,,,,,,,,0,,1,7,17,9,1,10,BY,B,Y,bothWrong,d,,,,,,,,,,,,,,,,,,,,,,,,,,,,,,,,,,,,,,,,,,,,,,,,,,,,,,,,,,,,,,,,,,,
194.211,,,,,,,,Nic,2024-01-18_19h45.54.318,Mental Fatigue Training Session,2020.2.4,MacIntel,60,,,,,,,,,0,,1,8,18,4,1,5,AX,A,X,target,k,,,,,,,,,,,,,,,,,,,,,,,,,,,,,,,,,,,,,,,,,,,,,,,,,,,,,,,,,,,,,,,,,,,
202.411,,,,,,,,Nic,2024-01-18_19h45.54.318,Mental Fatigue Training Session,2020.2.4,MacIntel,60,,,,,,,,,0,,1,9,19,0,1,1,AX,A,X,target,k,,,,,,,,,,,,,,,,,,,,,,,,,,,,,,,,,,,,,,,,,,,,,,,,,,,,,,,,,,,,,,,,,,,
210.611,,,,,,,,Nic,2024-01-18_19h45.54.318,Mental Fatigue Training Session,2020.2.4,MacIntel,60,,,,,,,,,0,,2,0,20,4,1,5,AX,A,X,target,k,,,,,,,,,,,,,,,,,,,,,,,,,,,,,,,,,,,,,,,,,,,,,,,,,,,,,,,,,,,,,,,,,,,
218.811,,,,,,,,Nic,2024-01-18_19h45.54.318,Mental Fatigue Training Session,2020.2.4,MacIntel,60,,,,,,,,,0,,2,1,21,9,1,10,BY,B,Y,bothWrong,d,,,,,,,,,,,,,,,,,,,,,,,,,,,,,,,,,,,,,,,,,,,,,,,,,,,,,,,,,,,,,,,,,,,
227.011,,,,,,,,Nic,2024-01-18_19h45.54.318,Mental Fatigue Training Session,2020.2.4,MacIntel,60,,,,,,,,,0,,2,2,22,0,1,1,AX,A,X,target,k,,,,,,,,,,,,,,,,,,,,,,,,,,,,,,,,,,,,,,,,,,,,,,,,,,,,,,,,,,,,,,,,,,,
235.211,,,,,,,,Nic,2024-01-18_19h45.54.318,Mental Fatigue Training Session,2020.2.4,MacIntel,60,,,,,,,,,0,,2,3,23,1,1,2,AX,A,X,target,k,,,,,,,,,,,,,,,,,,,,,,,,,,,,,,,,,,,,,,,,,,,,,,,,,,,,,,,,,,,,,,,,,,,
243.411,,,,,,,,Nic,2024-01-18_19h45.54.318,Mental Fatigue Training Session,2020.2.4,MacIntel,60,,,,,,,,,0,,2,4,24,3,1,4,AX,A,X,target,k,,,,,,,,,,,,,,,,,,,,,,,,,,,,,,,,,,,,,,,,,,,,,,,,,,,,,,,,,,,,,,,,,,,
251.61,,,,,,,,Nic,2024-01-18_19h45.54.318,Mental Fatigue Training Session,2020.2.4,MacIntel,60,,,,,,,,,0,,2,5,25,2,1,3,AX,A,X,target,k,,,,,,,,,,,,,,,,,,,,,,,,,,,,,,,,,,,,,,,,,,,,,,,,,,,,,,,,,,,,,,,,,,,
259.81,,,,,,,,Nic,2024-01-18_19h45.54.318,Mental Fatigue Training Session,2020.2.4,MacIntel,60,,,,,,,,,0,,2,6,26,7,1,8,BX,B,X,probeWrong,d,,,,,,,,,,,,,,,,,,,,,,,,,,,,,,,,,,,,,,,,,,,,,,,,,,,,,,,,,,,,,,,,,,,
268.011,,,,,,,,Nic,2024-01-18_19h45.54.318,Mental Fatigue Training Session,2020.2.4,MacIntel,60,,,,,,,,,0,,2,7,27,5,1,6,AX,A,X,target,k,,,,,,,,,,,,,,,,,,,,,,,,,,,,,,,,,,,,,,,,,,,,,,,,,,,,,,,,,,,,,,,,,,,
276.21,,,,,,,,Nic,2024-01-18_19h45.54.318,Mental Fatigue Training Session,2020.2.4,MacIntel,60,,,,,,,,,0,,2,8,28,6,1,7,AX,A,X,target,k,,,,,,,,,,,,,,,,,,,,,,,,,,,,,,,,,,,,,,,,,,,,,,,,,,,,,,,,,,,,,,,,,,,
284.41,,,,,,,,Nic,2024-01-18_19h45.54.318,Mental Fatigue Training Session,2020.2.4,MacIntel,60,,,,,,,,,0,,2,9,29,8,1,9,AY,A,Y,cueWrong,d,,,,,,,,,,,,,,,,,,,,,,,,,,,,,,,,,,,,,,,,,,,,,,,,,,,,,,,,,,,,,,,,,,,
292.61,,,,,,,,Nic,2024-01-18_19h45.54.318,Mental Fatigue Training Session,2020.2.4,MacIntel,60,,,,,,,,,0,,3,0,30,9,1,10,BY,B,Y,bothWrong,d,,,,,,,,,,,,,,,,,,,,,,,,,,,,,,,,,,,,,,,,,,,,,,,,,,,,,,,,,,,,,,,,,,,
300.81,,,,,,,,Nic,2024-01-18_19h45.54.318,Mental Fatigue Training Session,2020.2.4,MacIntel,60,,,,,,,,,0,,3,1,31,7,1,8,BX,B,X,probeWrong,d,,,,,,,,,,,,,,,,,,,,,,,,,,,,,,,,,,,,,,,,,,,,,,,,,,,,,,,,,,,,,,,,,,,
309.01,,,,,,,,Nic,2024-01-18_19h45.54.318,Mental Fatigue Training Session,2020.2.4,MacIntel,60,,,,,,,,,0,,3,2,32,1,1,2,AX,A,X,target,k,,,,,,,,,,,,,,,,,,,,,,,,,,,,,,,,,,,,,,,,,,,,,,,,,,,,,,,,,,,,,,,,,,,
317.21,,,,,,,,Nic,2024-01-18_19h45.54.318,Mental Fatigue Training Session,2020.2.4,MacIntel,60,,,,,,,,,0,,3,3,33,2,1,3,AX,A,X,target,k,,,,,,,,,,,,,,,,,,,,,,,,,,,,,,,,,,,,,,,,,,,,,,,,,,,,,,,,,,,,,,,,,,,
325.409,,,,,,,,Nic,2024-01-18_19h45.54.318,Mental Fatigue Training Session,2020.2.4,MacIntel,60,,,,,,,,,0,,3,4,34,4,1,5,AX,A,X,target,k,,,,,,,,,,,,,,,,,,,,,,,,,,,,,,,,,,,,,,,,,,,,,,,,,,,,,,,,,,,,,,,,,,,
333.609,,,,,,,,Nic,2024-01-18_19h45.54.318,Mental Fatigue Training Session,2020.2.4,MacIntel,60,,,,,,,,,0,,3,5,35,5,1,6,AX,A,X,target,k,,,,,,,,,,,,,,,,,,,,,,,,,,,,,,,,,,,,,,,,,,,,,,,,,,,,,,,,,,,,,,,,,,,
341.81,,,,,,,,Nic,2024-01-18_19h45.54.318,Mental Fatigue Training Session,2020.2.4,MacIntel,60,,,,,,,,,0,,3,6,36,6,1,7,AX,A,X,target,k,,,,,,,,,,,,,,,,,,,,,,,,,,,,,,,,,,,,,,,,,,,,,,,,,,,,,,,,,,,,,,,,,,,
350.01,,,,,,,,Nic,2024-01-18_19h45.54.318,Mental Fatigue Training Session,2020.2.4,MacIntel,60,,,,,,,,,0,,3,7,37,3,1,4,AX,A,X,target,k,,,,,,,,,,,,,,,,,,,,,,,,,,,,,,,,,,,,,,,,,,,,,,,,,,,,,,,,,,,,,,,,,,,
358.21,,,,,,,,Nic,2024-01-18_19h45.54.318,Mental Fatigue Training Session,2020.2.4,MacIntel,60,,,,,,,,,0,,3,8,38,8,1,9,AY,A,Y,cueWrong,d,,,,,,,,,,,,,,,,,,,,,,,,,,,,,,,,,,,,,,,,,,,,,,,,,,,,,,,,,,,,,,,,,,,
412.492,,,,,,,,Nic,2024-01-18_19h45.54.318,Mental Fatigue Training Session,2020.2.4,MacIntel,60,,,,,,,,,,,,,,,,,,,,,,18.3,right,18.279,right,28.951,0,0,0,0,1,,,,,,,,,,,,,,,,,,,,,,,,,,,,,,,,,,,,,,,,,,,,,,,,,,,,,,,,,
437.725,,,,,,,,Nic,2024-01-18_19h45.54.318,Mental Fatigue Training Session,2020.2.4,MacIntel,60,,,,,,,,,,,,,,,,,,,,,,,,,right,25.203,1,0,1,0,1,,,,,,,,,,,,,,,,,,,,,,,,,,,,,,,,,,,,,,,,,,,,,,,,,,,,,,,,,
445.407,,,,,,,,Nic,2024-01-18_19h45.54.318,Mental Fatigue Training Session,2020.2.4,MacIntel,60,,,,,,,,,,,,,,,,,,,,,,,,,right,7.653,2,0,2,0,1,,,,,,,,,,,,,,,,,,,,,,,,,,,,,,,,,,,,,,,,,,,,,,,,,,,,,,,,,
448.475,,,,,,,,Nic,2024-01-18_19h45.54.318,Mental Fatigue Training Session,2020.2.4,MacIntel,60,,,,,,,,,,,,,,,,,,,,,,,,,k,3.051,3,0,3,0,1,,,,,,,,,,,,,,,,,,,,,,,,,,,,,,,,,,,,,,,,,,,,,,,,,,,,,,,,,
449.675,,,,,,,,Nic,2024-01-18_19h45.54.318,Mental Fatigue Training Session,2020.2.4,MacIntel,60,,,,,,,,,,,,,,,,,,,,,,,,,,,,,,,,d,1.233,0,0,0,0,1,,,,,,,,,,,,,,,,,,,,,,,,,,,,,,,,,,,,,,,,,,,,,,,,,,
452.125,,,,,,,,Nic,2024-01-18_19h45.54.318,Mental Fatigue Training Session,2020.2.4,MacIntel,60,,,,,,,,,,,,,,,,,,,,,,,,,,,,,,,,d,0.649,1,0,1,0,1,,,,,,,,,,,,,,,,,,,,,,,,,,,,,,,,,,,,,,,,,,,,,,,,,,
453.991,,,,,,,,Nic,2024-01-18_19h45.54.318,Mental Fatigue Training Session,2020.2.4,MacIntel,60,,,,,,,,,,,,,,,,,,,,,,,,,,,,,,,,d,0.698,2,0,2,0,1,,,,,,,,,,,,,,,,,,,,,,,,,,,,,,,,,,,,,,,,,,,,,,,,,,
455.925,,,,,,,,Nic,2024-01-18_19h45.54.318,Mental Fatigue Training Session,2020.2.4,MacIntel,60,,,,,,,,,,,,,,,,,4,,,nonTarget,d,,,,,,,,,,,,,,,,,,k,0,0.701,0,0,0,3,1,,,,,,,,,,,,,,,,,,,,,,,,,,,,,,,,,,,,,,,,,,
458.841,,,,,,,,Nic,2024-01-18_19h45.54.318,Mental Fatigue Training Session,2020.2.4,MacIntel,60,,,,,,,,,,,,,,,,,5,,,nonTarget,d,,,,,,,,,,,,,,,,,,d,1,1.264,0,1,1,4,1,,,,,,,,,,,,,,,,,,,,,,,,,,,,,,,,,,,,,,,,,,
462.324,,,,,,,,Nic,2024-01-18_19h45.54.318,Mental Fatigue Training Session,2020.2.4,MacIntel,60,,,,,,,,,,,,,,,,,10,,,nonTarget,d,,,,,,,,,,,,,,,,,,d,1,1.216,0,2,2,9,1,,,,,,,,,,,,,,,,,,,,,,,,,,,,,,,,,,,,,,,,,,
465.758,,,,,,,,Nic,2024-01-18_19h45.54.318,Mental Fatigue Training Session,2020.2.4,MacIntel,60,,,,,,,,,,,,,,,,,9,,,nonTarget,d,,,,,,,,,,,,,,,,,,d,1,0.631,0,3,3,8,1,,,,,,,,,,,,,,,,,,,,,,,,,,,,,,,,,,,,,,,,,,
468.608,,,,,,,,Nic,2024-01-18_19h45.54.318,Mental Fatigue Training Session,2020.2.4,MacIntel,60,,,,,,,,,,,,,,,,,3,,,target,k,,,,,,,,,,,,,,,,,,k,1,1.699,0,4,4,2,1,,,,,,,,,,,,,,,,,,,,,,,,,,,,,,,,,,,,,,,,,,
472.524,,,,,,,,Nic,2024-01-18_19h45.54.318,Mental Fatigue Training Session,2020.2.4,MacIntel,60,,,,,,,,,,,,,,,,,2,,,target,k,,,,,,,,,,,,,,,,,,d,0,1.915,0,5,5,1,1,,,,,,,,,,,,,,,,,,,,,,,,,,,,,,,,,,,,,,,,,,
476.658,,,,,,,,Nic,2024-01-18_19h45.54.318,Mental Fatigue Training Session,2020.2.4,MacIntel,60,,,,,,,,,,,,,,,,,6,,,nonTarget,d,,,,,,,,,,,,,,,,,,,0,,0,6,6,5,1,,,,,,,,,,,,,,,,,,,,,,,,,,,,,,,,,,,,,,,,,,
480.857,,,,,,,,Nic,2024-01-18_19h45.54.318,Mental Fatigue Training Session,2020.2.4,MacIntel,60,,,,,,,,,,,,,,,,,1,,,target,k,,,,,,,,,,,,,,,,,,,0,,0,7,7,0,1,,,,,,,,,,,,,,,,,,,,,,,,,,,,,,,,,,,,,,,,,,
485.057,,,,,,,,Nic,2024-01-18_19h45.54.318,Mental Fatigue Training Session,2020.2.4,MacIntel,60,,,,,,,,,,,,,,,,,7,,,nonTarget,d,,,,,,,,,,,,,,,,,,,0,,0,8,8,6,1,,,,,,,,,,,,,,,,,,,,,,,,,,,,,,,,,,,,,,,,,,
489.257,,,,,,,,Nic,2024-01-18_19h45.54.318,Mental Fatigue Training Session,2020.2.4,MacIntel,60,,,,,,,,,,,,,,,,,8,,,nonTarget,d,,,,,,,,,,,,,,,,,,,0,,0,9,9,7,1,,,,,,,,,,,,,,,,,,,,,,,,,,,,,,,,,,,,,,,,,,
493.458,,,,,,,,Nic,2024-01-18_19h45.54.318,Mental Fatigue Training Session,2020.2.4,MacIntel,60,,,,,,,,,,,,,,,,,10,,,nonTarget,d,,,,,,,,,,,,,,,,,,d,1,0.666,1,0,10,9,1,,,,,,,,,,,,,,,,,,,,,,,,,,,,,,,,,,,,,,,,,,
496.34,,,,,,,,Nic,2024-01-18_19h45.54.318,Mental Fatigue Training Session,2020.2.4,MacIntel,60,,,,,,,,,,,,,,,,,3,,,target,k,,,,,,,,,,,,,,,,,,d,0,0.734,1,1,11,2,1,,,,,,,,,,,,,,,,,,,,,,,,,,,,,,,,,,,,,,,,,,
499.29,,,,,,,,Nic,2024-01-18_19h45.54.318,Mental Fatigue Training Session,2020.2.4,MacIntel,60,,,,,,,,,,,,,,,,,7,,,nonTarget,d,,,,,,,,,,,,,,,,,,k,0,0.748,1,2,12,6,1,,,,,,,,,,,,,,,,,,,,,,,,,,,,,,,,,,,,,,,,,,
502.257,,,,,,,,Nic,2024-01-18_19h45.54.318,Mental Fatigue Training Session,2020.2.4,MacIntel,60,,,,,,,,,,,,,,,,,1,,,target,k,,,,,,,,,,,,,,,,,,d,0,0.716,1,3,13,0,1,,,,,,,,,,,,,,,,,,,,,,,,,,,,,,,,,,,,,,,,,,
505.191,,,,,,,,Nic,2024-01-18_19h45.54.318,Mental Fatigue Training Session,2020.2.4,MacIntel,60,,,,,,,,,,,,,,,,,2,,,target,k,,,,,,,,,,,,,,,,,,k,1,1.35,1,4,14,1,1,,,,,,,,,,,,,,,,,,,,,,,,,,,,,,,,,,,,,,,,,,
508.757,,,,,,,,Nic,2024-01-18_19h45.54.318,Mental Fatigue Training Session,2020.2.4,MacIntel,60,,,,,,,,,,,,,,,,,5,,,nonTarget,d,,,,,,,,,,,,,,,,,,d,1,1.315,1,5,15,4,1,,,,,,,,,,,,,,,,,,,,,,,,,,,,,,,,,,,,,,,,,,
512.291,,,,,,,,Nic,2024-01-18_19h45.54.318,Mental Fatigue Training Session,2020.2.4,MacIntel,60,,,,,,,,,,,,,,,,,6,,,nonTarget,d,,,,,,,,,,,,,,,,,,,0,,1,6,16,5,1,,,,,,,,,,,,,,,,,,,,,,,,,,,,,,,,,,,,,,,,,,
516.491,,,,,,,,Nic,2024-01-18_19h45.54.318,Mental Fatigue Training Session,2020.2.4,MacIntel,60,,,,,,,,,,,,,,,,,9,,,nonTarget,d,,,,,,,,,,,,,,,,,,k,0,1.15,1,7,17,8,1,,,,,,,,,,,,,,,,,,,,,,,,,,,,,,,,,,,,,,,,,,
519.857,,,,,,,,Nic,2024-01-18_19h45.54.318,Mental Fatigue Training Session,2020.2.4,MacIntel,60,,,,,,,,,,,,,,,,,4,,,nonTarget,d,,,,,,,,,,,,,,,,,,d,1,0.685,1,8,18,3,1,,,,,,,,,,,,,,,,,,,,,,,,,,,,,,,,,,,,,,,,,,
522.757,,,,,,,,Nic,2024-01-18_19h45.54.318,Mental Fatigue Training Session,2020.2.4,MacIntel,60,,,,,,,,,,,,,,,,,8,,,nonTarget,d,,,,,,,,,,,,,,,,,,d,1,1.449,1,9,19,7,1,,,,,,,,,,,,,,,,,,,,,,,,,,,,,,,,,,,,,,,,,,
526.423,,,,,,,,Nic,2024-01-18_19h45.54.318,Mental Fatigue Training Session,2020.2.4,MacIntel,60,,,,,,,,,,,,,,,,,4,,,nonTarget,d,,,,,,,,,,,,,,,,,,d,1,0.75,2,0,20,3,1,,,,,,,,,,,,,,,,,,,,,,,,,,,,,,,,,,,,,,,,,,
529.389,,,,,,,,Nic,2024-01-18_19h45.54.318,Mental Fatigue Training Session,2020.2.4,MacIntel,60,,,,,,,,,,,,,,,,,10,,,nonTarget,d,,,,,,,,,,,,,,,,,,d,1,0.883,2,1,21,9,1,,,,,,,,,,,,,,,,,,,,,,,,,,,,,,,,,,,,,,,,,,
532.489,,,,,,,,Nic,2024-01-18_19h45.54.318,Mental Fatigue Training Session,2020.2.4,MacIntel,60,,,,,,,,,,,,,,,,,3,,,target,k,,,,,,,,,,,,,,,,,,k,1,0.832,2,2,22,2,1,,,,,,,,,,,,,,,,,,,,,,,,,,,,,,,,,,,,,,,,,,
535.54,,,,,,,,Nic,2024-01-18_19h45.54.318,Mental Fatigue Training Session,2020.2.4,MacIntel,60,,,,,,,,,,,,,,,,,9,,,nonTarget,d,,,,,,,,,,,,,,,,,,d,1,1.136,2,3,23,8,1,,,,,,,,,,,,,,,,,,,,,,,,,,,,,,,,,,,,,,,,,,
538.89,,,,,,,,Nic,2024-01-18_19h45.54.318,Mental Fatigue Training Session,2020.2.4,MacIntel,60,,,,,,,,,,,,,,,,,1,,,target,k,,,,,,,,,,,,,,,,,,d,0,0.917,2,4,24,0,1,,,,,,,,,,,,,,,,,,,,,,,,,,,,,,,,,,,,,,,,,,
542.023,,,,,,,,Nic,2024-01-18_19h45.54.318,Mental Fatigue Training Session,2020.2.4,MacIntel,60,,,,,,,,,,,,,,,,,2,,,target,k,,,,,,,,,,,,,,,,,,k,1,1.185,2,5,25,1,1,,,,,,,,,,,,,,,,,,,,,,,,,,,,,,,,,,,,,,,,,,
545.423,,,,,,,,Nic,2024-01-18_19h45.54.318,Mental Fatigue Training Session,2020.2.4,MacIntel,60,,,,,,,,,,,,,,,,,7,,,nonTarget,d,,,,,,,,,,,,,,,,,,d,1,0.738,2,6,26,6,1,,,,,,,,,,,,,,,,,,,,,,,,,,,,,,,,,,,,,,,,,,
548.373,,,,,,,,Nic,2024-01-18_19h45.54.318,Mental Fatigue Training Session,2020.2.4,MacIntel,60,,,,,,,,,,,,,,,,,5,,,nonTarget,d,,,,,,,,,,,,,,,,,,d,1,0.732,2,7,27,4,1,,,,,,,,,,,,,,,,,,,,,,,,,,,,,,,,,,,,,,,,,,
551.322,,,,,,,,Nic,2024-01-18_19h45.54.318,Mental Fatigue Training Session,2020.2.4,MacIntel,60,,,,,,,,,,,,,,,,,8,,,nonTarget,d,,,,,,,,,,,,,,,,,,d,1,0.798,2,8,28,7,1,,,,,,,,,,,,,,,,,,,,,,,,,,,,,,,,,,,,,,,,,,
554.34,,,,,,,,Nic,2024-01-18_19h45.54.318,Mental Fatigue Training Session,2020.2.4,MacIntel,60,,,,,,,,,,,,,,,,,6,,,nonTarget,d,,,,,,,,,,,,,,,,,,d,1,0.682,2,9,29,5,1,,,,,,,,,,,,,,,,,,,,,,,,,,,,,,,,,,,,,,,,,,
557.24,,,,,,,,Nic,2024-01-18_19h45.54.318,Mental Fatigue Training Session,2020.2.4,MacIntel,60,,,,,,,,,,,,,,,,,8,,,nonTarget,d,,,,,,,,,,,,,,,,,,d,1,1.134,3,0,30,7,1,,,,,,,,,,,,,,,,,,,,,,,,,,,,,,,,,,,,,,,,,,
560.59,,,,,,,,Nic,2024-01-18_19h45.54.318,Mental Fatigue Training Session,2020.2.4,MacIntel,60,,,,,,,,,,,,,,,,,4,,,nonTarget,d,,,,,,,,,,,,,,,,,,d,1,0.67,3,1,31,3,1,,,,,,,,,,,,,,,,,,,,,,,,,,,,,,,,,,,,,,,,,,
563.473,,,,,,,,Nic,2024-01-18_19h45.54.318,Mental Fatigue Training Session,2020.2.4,MacIntel,60,,,,,,,,,,,,,,,,,9,,,nonTarget,d,,,,,,,,,,,,,,,,,,d,1,0.667,3,2,32,8,1,,,,,,,,,,,,,,,,,,,,,,,,,,,,,,,,,,,,,,,,,,
566.356,,,,,,,,Nic,2024-01-18_19h45.54.318,Mental Fatigue Training Session,2020.2.4,MacIntel,60,,,,,,,,,,,,,,,,,5,,,nonTarget,d,,,,,,,,,,,,,,,,,,d,1,0.985,3,3,33,4,1,,,,,,,,,,,,,,,,,,,,,,,,,,,,,,,,,,,,,,,,,,
569.556,,,,,,,,Nic,2024-01-18_19h45.54.318,Mental Fatigue Training Session,2020.2.4,MacIntel,60,,,,,,,,,,,,,,,,,7,,,nonTarget,d,,,,,,,,,,,,,,,,,,k,0,0.737,3,4,34,6,1,,,,,,,,,,,,,,,,,,,,,,,,,,,,,,,,,,,,,,,,,,
572.507,,,,,,,,Nic,2024-01-18_19h45.54.318,Mental Fatigue Training Session,2020.2.4,MacIntel,60,,,,,,,,,,,,,,,,,3,,,target,k,,,,,,,,,,,,,,,,,,k,1,1.214,3,5,35,2,1,,,,,,,,,,,,,,,,,,,,,,,,,,,,,,,,,,,,,,,,,,
575.94,,,,,,,,Nic,2024-01-18_19h45.54.318,Mental Fatigue Training Session,2020.2.4,MacIntel,60,,,,,,,,,,,,,,,,,6,,,nonTarget,d,,,,,,,,,,,,,,,,,,k,0,0.965,3,6,36,5,1,,,,,,,,,,,,,,,,,,,,,,,,,,,,,,,,,,,,,,,,,,
579.123,,,,,,,,Nic,2024-01-18_19h45.54.318,Mental Fatigue Training Session,2020.2.4,MacIntel,60,,,,,,,,,,,,,,,,,1,,,target,k,,,,,,,,,,,,,,,,,,k,1,0.915,3,7,37,0,1,,,,,,,,,,,,,,,,,,,,,,,,,,,,,,,,,,,,,,,,,,
582.256,,,,,,,,Nic,2024-01-18_19h45.54.318,Mental Fatigue Training Session,2020.2.4,MacIntel,60,,,,,,,,,,,,,,,,,10,,,nonTarget,d,,,,,,,,,,,,,,,,,,d,1,0.785,3,8,38,9,1,,,,,,,,,,,,,,,,,,,,,,,,,,,,,,,,,,,,,,,,,,
585.256,,,,,,,,Nic,2024-01-18_19h45.54.318,Mental Fatigue Training Session,2020.2.4,MacIntel,60,,,,,,,,,,,,,,,,,2,,,target,k,,,,,,,,,,,,,,,,,,k,1,1.235,3,9,39,1,1,,,,,,,,,,,,,,,,,,,,,,,,,,,,,,,,,,,,,,,,,,
588.706,,,,,,,,Nic,2024-01-18_19h45.54.318,Mental Fatigue Training Session,2020.2.4,MacIntel,60,,,,,,,,,,,,,,,,,9,,,nonTarget,d,,,,,,,,,,,,,,,,,,d,1,0.897,4,0,40,8,1,,,,,,,,,,,,,,,,,,,,,,,,,,,,,,,,,,,,,,,,,,
591.822,,,,,,,,Nic,2024-01-18_19h45.54.318,Mental Fatigue Training Session,2020.2.4,MacIntel,60,,,,,,,,,,,,,,,,,10,,,nonTarget,d,,,,,,,,,,,,,,,,,,d,1,1.233,4,1,41,9,1,,,,,,,,,,,,,,,,,,,,,,,,,,,,,,,,,,,,,,,,,,
595.273,,,,,,,,Nic,2024-01-18_19h45.54.318,Mental Fatigue Training Session,2020.2.4,MacIntel,60,,,,,,,,,,,,,,,,,3,,,target,k,,,,,,,,,,,,,,,,,,d,0,0.884,4,2,42,2,1,,,,,,,,,,,,,,,,,,,,,,,,,,,,,,,,,,,,,,,,,,
598.373,,,,,,,,Nic,2024-01-18_19h45.54.318,Mental Fatigue Training Session,2020.2.4,MacIntel,60,,,,,,,,,,,,,,,,,8,,,nonTarget,d,,,,,,,,,,,,,,,,,,d,1,1.135,4,3,43,7,1,,,,,,,,,,,,,,,,,,,,,,,,,,,,,,,,,,,,,,,,,,
601.723,,,,,,,,Nic,2024-01-18_19h45.54.318,Mental Fatigue Training Session,2020.2.4,MacIntel,60,,,,,,,,,,,,,,,,,2,,,target,k,,,,,,,,,,,,,,,,,,k,1,1.315,4,4,44,1,1,,,,,,,,,,,,,,,,,,,,,,,,,,,,,,,,,,,,,,,,,,
605.255,,,,,,,,Nic,2024-01-18_19h45.54.318,Mental Fatigue Training Session,2020.2.4,MacIntel,60,,,,,,,,,,,,,,,,,4,,,nonTarget,d,,,,,,,,,,,,,,,,,,k,0,0.866,4,5,45,3,1,,,,,,,,,,,,,,,,,,,,,,,,,,,,,,,,,,,,,,,,,,
608.339,,,,,,,,Nic,2024-01-18_19h45.54.318,Mental Fatigue Training Session,2020.2.4,MacIntel,60,,,,,,,,,,,,,,,,,1,,,target,k,,,,,,,,,,,,,,,,,,d,0,0.936,4,6,46,0,1,,,,,,,,,,,,,,,,,,,,,,,,,,,,,,,,,,,,,,,,,,
611.488,,,,,,,,Nic,2024-01-18_19h45.54.318,Mental Fatigue Training Session,2020.2.4,MacIntel,60,,,,,,,,,,,,,,,,,5,,,nonTarget,d,,,,,,,,,,,,,,,,,,k,0,1.032,4,7,47,4,1,,,,,,,,,,,,,,,,,,,,,,,,,,,,,,,,,,,,,,,,,,
614.739,,,,,,,,Nic,2024-01-18_19h45.54.318,Mental Fatigue Training Session,2020.2.4,MacIntel,60,,,,,,,,,,,,,,,,,7,,,nonTarget,d,,,,,,,,,,,,,,,,,,d,1,1.068,4,8,48,6,1,,,,,,,,,,,,,,,,,,,,,,,,,,,,,,,,,,,,,,,,,,
618.023,,,,,,,,Nic,2024-01-18_19h45.54.318,Mental Fatigue Training Session,2020.2.4,MacIntel,60,,,,,,,,,,,,,,,,,6,,,nonTarget,d,,,,,,,,,,,,,,,,,,k,0,0.882,4,9,49,5,1,,,,,,,,,,,,,,,,,,,,,,,,,,,,,,,,,,,,,,,,,,
621.123,,,,,,,,Nic,2024-01-18_19h45.54.318,Mental Fatigue Training Session,2020.2.4,MacIntel,60,,,,,,,,,,,,,,,,,10,,,nonTarget,d,,,,,,,,,,,,,,,,,,d,1,0.815,5,0,50,9,1,,,,,,,,,,,,,,,,,,,,,,,,,,,,,,,,,,,,,,,,,,
624.156,,,,,,,,Nic,2024-01-18_19h45.54.318,Mental Fatigue Training Session,2020.2.4,MacIntel,60,,,,,,,,,,,,,,,,,6,,,nonTarget,d,,,,,,,,,,,,,,,,,,k,0,1.016,5,1,51,5,1,,,,,,,,,,,,,,,,,,,,,,,,,,,,,,,,,,,,,,,,,,
627.388,,,,,,,,Nic,2024-01-18_19h45.54.318,Mental Fatigue Training Session,2020.2.4,MacIntel,60,,,,,,,,,,,,,,,,,1,,,target,k,,,,,,,,,,,,,,,,,,d,0,0.552,5,2,52,0,1,,,,,,,,,,,,,,,,,,,,,,,,,,,,,,,,,,,,,,,,,,
630.156,,,,,,,,Nic,2024-01-18_19h45.54.318,Mental Fatigue Training Session,2020.2.4,MacIntel,60,,,,,,,,,,,,,,,,,2,,,target,k,,,,,,,,,,,,,,,,,,k,1,0.851,5,3,53,1,1,,,,,,,,,,,,,,,,,,,,,,,,,,,,,,,,,,,,,,,,,,
633.222,,,,,,,,Nic,2024-01-18_19h45.54.318,Mental Fatigue Training Session,2020.2.4,MacIntel,60,,,,,,,,,,,,,,,,,7,,,nonTarget,d,,,,,,,,,,,,,,,,,,d,1,0.85,5,4,54,6,1,,,,,,,,,,,,,,,,,,,,,,,,,,,,,,,,,,,,,,,,,,
636.289,,,,,,,,Nic,2024-01-18_19h45.54.318,Mental Fatigue Training Session,2020.2.4,MacIntel,60,,,,,,,,,,,,,,,,,8,,,nonTarget,d,,,,,,,,,,,,,,,,,,d,1,0.866,5,5,55,7,1,,,,,,,,,,,,,,,,,,,,,,,,,,,,,,,,,,,,,,,,,,
639.372,,,,,,,,Nic,2024-01-18_19h45.54.318,Mental Fatigue Training Session,2020.2.4,MacIntel,60,,,,,,,,,,,,,,,,,3,,,target,k,,,,,,,,,,,,,,,,,,d,0,1.649,5,6,56,2,1,,,,,,,,,,,,,,,,,,,,,,,,,,,,,,,,,,,,,,,,,,
643.239,,,,,,,,Nic,2024-01-18_19h45.54.318,Mental Fatigue Training Session,2020.2.4,MacIntel,60,,,,,,,,,,,,,,,,,5,,,nonTarget,d,,,,,,,,,,,,,,,,,,d,1,0.949,5,7,57,4,1,,,,,,,,,,,,,,,,,,,,,,,,,,,,,,,,,,,,,,,,,,
646.404,,,,,,,,Nic,2024-01-18_19h45.54.318,Mental Fatigue Training Session,2020.2.4,MacIntel,60,,,,,,,,,,,,,,,,,9,,,nonTarget,d,,,,,,,,,,,,,,,,,,k,0,0.699,5,8,58,8,1,,,,,,,,,,,,,,,,,,,,,,,,,,,,,,,,,,,,,,,,,,
649.321,,,,,,,,Nic,2024-01-18_19h45.54.318,Mental Fatigue Training Session,2020.2.4,MacIntel,60,,,,,,,,,,,,,,,,,4,,,nonTarget,d,,,,,,,,,,,,,,,,,,k,0,1.283,5,9,59,3,1,,,,,,,,,,,,,,,,,,,,,,,,,,,,,,,,,,,,,,,,,,
652.821,,,,,,,,Nic,2024-01-18_19h45.54.318,Mental Fatigue Training Session,2020.2.4,MacIntel,60,,,,,,,,,,,,,,,,,5,,,nonTarget,d,,,,,,,,,,,,,,,,,,d,1,0.482,6,0,60,4,1,,,,,,,,,,,,,,,,,,,,,,,,,,,,,,,,,,,,,,,,,,
655.522,,,,,,,,Nic,2024-01-18_19h45.54.318,Mental Fatigue Training Session,2020.2.4,MacIntel,60,,,,,,,,,,,,,,,,,9,,,nonTarget,d,,,,,,,,,,,,,,,,,,k,0,0.869,6,1,61,8,1,,,,,,,,,,,,,,,,,,,,,,,,,,,,,,,,,,,,,,,,,,
658.605,,,,,,,,Nic,2024-01-18_19h45.54.318,Mental Fatigue Training Session,2020.2.4,MacIntel,60,,,,,,,,,,,,,,,,,2,,,target,k,,,,,,,,,,,,,,,,,,d,0,0.816,6,2,62,1,1,,,,,,,,,,,,,,,,,,,,,,,,,,,,,,,,,,,,,,,,,,
661.638,,,,,,,,Nic,2024-01-18_19h45.54.318,Mental Fatigue Training Session,2020.2.4,MacIntel,60,,,,,,,,,,,,,,,,,7,,,nonTarget,d,,,,,,,,,,,,,,,,,,d,1,0.965,6,3,63,6,1,,,,,,,,,,,,,,,,,,,,,,,,,,,,,,,,,,,,,,,,,,
664.821,,,,,,,,Nic,2024-01-18_19h45.54.318,Mental Fatigue Training Session,2020.2.4,MacIntel,60,,,,,,,,,,,,,,,,,1,,,target,k,,,,,,,,,,,,,,,,,,d,0,0.6,6,4,64,0,1,,,,,,,,,,,,,,,,,,,,,,,,,,,,,,,,,,,,,,,,,,
667.638,,,,,,,,Nic,2024-01-18_19h45.54.318,Mental Fatigue Training Session,2020.2.4,MacIntel,60,,,,,,,,,,,,,,,,,3,,,target,k,,,,,,,,,,,,,,,,,,,0,,6,5,65,2,1,,,,,,,,,,,,,,,,,,,,,,,,,,,,,,,,,,,,,,,,,,
671.838,,,,,,,,Nic,2024-01-18_19h45.54.318,Mental Fatigue Training Session,2020.2.4,MacIntel,60,,,,,,,,,,,,,,,,,10,,,nonTarget,d,,,,,,,,,,,,,,,,,,k,0,1.016,6,6,66,9,1,,,,,,,,,,,,,,,,,,,,,,,,,,,,,,,,,,,,,,,,,,
675.072,,,,,,,,Nic,2024-01-18_19h45.54.318,Mental Fatigue Training Session,2020.2.4,MacIntel,60,,,,,,,,,,,,,,,,,6,,,nonTarget,d,,,,,,,,,,,,,,,,,,d,1,1.05,6,7,67,5,1,,,,,,,,,,,,,,,,,,,,,,,,,,,,,,,,,,,,,,,,,,
678.338,,,,,,,,Nic,2024-01-18_19h45.54.318,Mental Fatigue Training Session,2020.2.4,MacIntel,60,,,,,,,,,,,,,,,,,8,,,nonTarget,d,,,,,,,,,,,,,,,,,,d,1,0.918,6,8,68,7,1,,,,,,,,,,,,,,,,,,,,,,,,,,,,,,,,,,,,,,,,,,
681.472,,,,,,,,Nic,2024-01-18_19h45.54.318,Mental Fatigue Training Session,2020.2.4,MacIntel,60,,,,,,,,,,,,,,,,,4,,,nonTarget,d,,,,,,,,,,,,,,,,,,d,1,0.7,6,9,69,3,1,,,,,,,,,,,,,,,,,,,,,,,,,,,,,,,,,,,,,,,,,,
684.389,,,,,,,,Nic,2024-01-18_19h45.54.318,Mental Fatigue Training Session,2020.2.4,MacIntel,60,,,,,,,,,,,,,,,,,4,,,nonTarget,d,,,,,,,,,,,,,,,,,,k,0,1.233,7,0,70,3,1,,,,,,,,,,,,,,,,,,,,,,,,,,,,,,,,,,,,,,,,,,
739.238,,,,,,,,Nic,2024-01-18_19h45.54.318,Mental Fatigue Training Session,2020.2.4,MacIntel,60,,,,,,,,,,,,,,,,,,,,,,,,,,,,,,,,,,,,,,,,,,,,,,,37.55,right,37.53,right,15.015,0,0,0,0,1,,,,,,,,,,,,,,,,,,,,,,,,,,,,,,,,
744.871,,,,,,,,Nic,2024-01-18_19h45.54.318,Mental Fatigue Training Session,2020.2.4,MacIntel,60,,,,,,,,,,,,,,,,,,,,,,,,,,,,,,,,,,,,,,,,,,,,,,,,,,right,5.605,1,0,1,0,1,,,,,,,,,,,,,,,,,,,,,,,,,,,,,,,,
746.388,,,,,,,,Nic,2024-01-18_19h45.54.318,Mental Fatigue Training Session,2020.2.4,MacIntel,60,,,,,,,,,,,,,,,,,,,,,,,,,,,,,,,,,,,,,,,,,,,,,,,,,,k,1.491,2,0,2,0,1,,,,,,,,,,,,,,,,,,,,,,,,,,,,,,,,
747.603,,,,,,,,Nic,2024-01-18_19h45.54.318,Mental Fatigue Training Session,2020.2.4,MacIntel,60,,,,,,,,,,,,,,,,,,,,,k,,,,,,,,,,,,,,,,,,,,,,,,,,,,,,,,,,,,k,1,1.016,0,0,0,8,1,target,T,,,,,,,,,,,,,,,,,,,,,,
750.886,,,,,,,,Nic,2024-01-18_19h45.54.318,Mental Fatigue Training Session,2020.2.4,MacIntel,60,,,,,,,,,,,,,,,,,,,,,d,,,,,,,,,,,,,,,,,,,,,,,,,,,,,,,,,,,,d,1,0.969,0,1,1,9,1,nonTarget,L,,,,,,,,,,,,,,,,,,,,,,
754.121,,,,,,,,Nic,2024-01-18_19h45.54.318,Mental Fatigue Training Session,2020.2.4,MacIntel,60,,,,,,,,,,,,,,,,,,,,,k,,,,,,,,,,,,,,,,,,,,,,,,,,,,,,,,,,,,d,0,0.655,0,2,2,2,1,target,T,,,,,,,,,,,,,,,,,,,,,,
757.02,,,,,,,,Nic,2024-01-18_19h45.54.318,Mental Fatigue Training Session,2020.2.4,MacIntel,60,,,,,,,,,,,,,,,,,,,,,k,,,,,,,,,,,,,,,,,,,,,,,,,,,,,,,,,,,,k,1,1.547,0,3,3,0,1,target,T,,,,,,,,,,,,,,,,,,,,,,
760.803,,,,,,,,Nic,2024-01-18_19h45.54.318,Mental Fatigue Training Session,2020.2.4,MacIntel,60,,,,,,,,,,,,,,,,,,,,,d,,,,,,,,,,,,,,,,,,,,,,,,,,,,,,,,,,,,d,1,1.305,0,4,4,7,1,nonTarget,L,,,,,,,,,,,,,,,,,,,,,,
764.353,,,,,,,,Nic,2024-01-18_19h45.54.318,Mental Fatigue Training Session,2020.2.4,MacIntel,60,,,,,,,,,,,,,,,,,,,,,k,,,,,,,,,,,,,,,,,,,,,,,,,,,,,,,,,,,,k,1,0.841,0,5,5,6,1,target,T,,,,,,,,,,,,,,,,,,,,,,
767.436,,,,,,,,Nic,2024-01-18_19h45.54.318,Mental Fatigue Training Session,2020.2.4,MacIntel,60,,,,,,,,,,,,,,,,,,,,,k,,,,,,,,,,,,,,,,,,,,,,,,,,,,,,,,,,,,d,0,0.957,0,6,6,4,1,target,T,,,,,,,,,,,,,,,,,,,,,,
770.636,,,,,,,,Nic,2024-01-18_19h45.54.318,Mental Fatigue Training Session,2020.2.4,MacIntel,60,,,,,,,,,,,,,,,,,,,,,d,,,,,,,,,,,,,,,,,,,,,,,,,,,,,,,,,,,,d,1,1.321,0,7,7,5,1,nonTarget,L,,,,,,,,,,,,,,,,,,,,,,
774.203,,,,,,,,Nic,2024-01-18_19h45.54.318,Mental Fatigue Training Session,2020.2.4,MacIntel,60,,,,,,,,,,,,,,,,,,,,,d,,,,,,,,,,,,,,,,,,,,,,,,,,,,,,,,,,,,d,1,1.495,0,8,8,1,1,nonTarget,L,,,,,,,,,,,,,,,,,,,,,,
777.954,,,,,,,,Nic,2024-01-18_19h45.54.318,Mental Fatigue Training Session,2020.2.4,MacIntel,60,,,,,,,,,,,,,,,,,,,,,d,,,,,,,,,,,,,,,,,,,,,,,,,,,,,,,,,,,,d,1,1.099,0,9,9,3,1,nonTarget,L,,,,,,,,,,,,,,,,,,,,,,
781.303,,,,,,,,Nic,2024-01-18_19h45.54.318,Mental Fatigue Training Session,2020.2.4,MacIntel,60,,,,,,,,,,,,,,,,,,,,,d,,,,,,,,,,,,,,,,,,,,,,,,,,,,,,,,,,,,d,1,0.578,1,0,10,3,1,nonTarget,L,,,,,,,,,,,,,,,,,,,,,,
784.119,,,,,,,,Nic,2024-01-18_19h45.54.318,Mental Fatigue Training Session,2020.2.4,MacIntel,60,,,,,,,,,,,,,,,,,,,,,k,,,,,,,,,,,,,,,,,,,,,,,,,,,,,,,,,,,,k,1,0.831,1,1,11,8,1,target,T,,,,,,,,,,,,,,,,,,,,,,
787.204,,,,,,,,Nic,2024-01-18_19h45.54.318,Mental Fatigue Training Session,2020.2.4,MacIntel,60,,,,,,,,,,,,,,,,,,,,,d,,,,,,,,,,,,,,,,,,,,,,,,,,,,,,,,,,,,d,1,1.052,1,2,12,5,1,nonTarget,L,,,,,,,,,,,,,,,,,,,,,,
790.504,,,,,,,,Nic,2024-01-18_19h45.54.318,Mental Fatigue Training Session,2020.2.4,MacIntel,60,,,,,,,,,,,,,,,,,,,,,d,,,,,,,,,,,,,,,,,,,,,,,,,,,,,,,,,,,,d,1,1.361,1,3,13,9,1,nonTarget,L,,,,,,,,,,,,,,,,,,,,,,
794.119,,,,,,,,Nic,2024-01-18_19h45.54.318,Mental Fatigue Training Session,2020.2.4,MacIntel,60,,,,,,,,,,,,,,,,,,,,,k,,,,,,,,,,,,,,,,,,,,,,,,,,,,,,,,,,,,k,1,1.24,1,4,14,4,1,target,T,,,,,,,,,,,,,,,,,,,,,,
797.619,,,,,,,,Nic,2024-01-18_19h45.54.318,Mental Fatigue Training Session,2020.2.4,MacIntel,60,,,,,,,,,,,,,,,,,,,,,k,,,,,,,,,,,,,,,,,,,,,,,,,,,,,,,,,,,,k,1,1.107,1,5,15,6,1,target,T,,,,,,,,,,,,,,,,,,,,,,
800.971,,,,,,,,Nic,2024-01-18_19h45.54.318,Mental Fatigue Training Session,2020.2.4,MacIntel,60,,,,,,,,,,,,,,,,,,,,,k,,,,,,,,,,,,,,,,,,,,,,,,,,,,,,,,,,,,k,1,0.997,1,6,16,0,1,target,T,,,,,,,,,,,,,,,,,,,,,,
804.219,,,,,,,,Nic,2024-01-18_19h45.54.318,Mental Fatigue Training Session,2020.2.4,MacIntel,60,,,,,,,,,,,,,,,,,,,,,k,,,,,,,,,,,,,,,,,,,,,,,,,,,,,,,,,,,,d,0,1.212,1,7,17,2,1,target,T,,,,,,,,,,,,,,,,,,,,,,
807.687,,,,,,,,Nic,2024-01-18_19h45.54.318,Mental Fatigue Training Session,2020.2.4,MacIntel,60,,,,,,,,,,,,,,,,,,,,,d,,,,,,,,,,,,,,,,,,,,,,,,,,,,,,,,,,,,d,1,1.122,1,8,18,1,1,nonTarget,L,,,,,,,,,,,,,,,,,,,,,,
811.052,,,,,,,,Nic,2024-01-18_19h45.54.318,Mental Fatigue Training Session,2020.2.4,MacIntel,60,,,,,,,,,,,,,,,,,,,,,d,,,,,,,,,,,,,,,,,,,,,,,,,,,,,,,,,,,,d,1,1.308,1,9,19,7,1,nonTarget,L,,,,,,,,,,,,,,,,,,,,,,
814.603,,,,,,,,Nic,2024-01-18_19h45.54.318,Mental Fatigue Training Session,2020.2.4,MacIntel,60,,,,,,,,,,,,,,,,,,,,,d,,,,,,,,,,,,,,,,,,,,,,,,,,,,,,,,,,,,k,0,342.944,2,0,20,9,1,nonTarget,L,,,,,,,,,,,,,,,,,,,,,,
1159.799,,,,,,,,Nic,2024-01-18_19h45.54.318,Mental Fatigue Training Session,2020.2.4,MacIntel,60,,,,,,,,,,,,,,,,,,,,,k,,,,,,,,,,,,,,,,,,,,,,,,,,,,,,,,,,,,k,1,97.257,2,1,21,8,1,target,T,,,,,,,,,,,,,,,,,,,,,,
1268.514,,,,,,,,Nic,2024-01-18_19h45.54.318,Mental Fatigue Training Session,2020.2.4,MacIntel,60,,,,,,,,,,,,,,,,,,,,,,,,,,,,,,,,,,,,,,,,,,,,,,,,,,,,,,,,,,,,,,,,,,,7.383,right,7.361,right,2.978,0,0,0,0,1,,,,,,,,,,,,
1274.73,,,,,,,,Nic,2024-01-18_19h45.54.318,Mental Fatigue Training Session,2020.2.4,MacIntel,60,,,,,,,,,,,,,,,,,,,,,,,,,,,,,,,,,,,,,,,,,,,,,,,,,,,,,,,,,,,,,,,,,,,,,,right,6.181,1,0,1,0,1,,,,,,,,,,,,
1277.597,,,,,,,,Nic,2024-01-18_19h45.54.318,Mental Fatigue Training Session,2020.2.4,MacIntel,60,,,,,,,,,,,,,,,,,,,,,,,,,,,,,,,,,,,,,,,,,,,,,,,,,,,,,,,,,,,,,,,,,,,,,,right,2.831,2,0,2,0,1,,,,,,,,,,,,
1279.713,,,,,,,,Nic,2024-01-18_19h45.54.318,Mental Fatigue Training Session,2020.2.4,MacIntel,60,,,,,,,,,,,,,,,,,,,,,,,,,,,,,,,,,,,,,,,,,,,,,,,,,,,,,,,,,,,,,,,,,,,,,,right,2.083,3,0,3,0,1,,,,,,,,,,,,
1295.113,,,,,,,,Nic,2024-01-18_19h45.54.318,Mental Fatigue Training Session,2020.2.4,MacIntel,60,,,,,,,,,,,,,,,,,,,,,,,,,,,,,,,,,,,,,,,,,,,,,,,,,,,,,,,,,,,,,,,,,,,,,,right,15.354,4,0,4,0,1,,,,,,,,,,,,
1296.63,,,,,,,,Nic,2024-01-18_19h45.54.318,Mental Fatigue Training Session,2020.2.4,MacIntel,60,,,,,,,,,,,,,,,,,,,,,,,,,,,,,,,,,,,,,,,,,,,,,,,,,,,,,,,,,,,,,,,,,,,,,,k,1.501,5,0,5,0,1,,,,,,,,,,,,
1298.519,,,,,,,,Nic,2024-01-18_19h45.54.318,Mental Fatigue Training Session,2020.2.4,MacIntel,60,,,,,,,,,,,,,,,,,,,,,d,,,,,,,,,,,,,,,,,,,,,,,,,,,,,,,,,,,,,,,,,,,,,,,,,,,,,,,,d,1,2.174,0,0,0,33,1,23_0_R.jpg,0,,
1302.913,,,,,,,,Nic,2024-01-18_19h45.54.318,Mental Fatigue Training Session,2020.2.4,MacIntel,60,,,,,,,,,,,,,,,,,,,,,k,,,,,,,,,,,,,,,,,,,,,,,,,,,,,,,,,,,,,,,,,,,,,,,,,,,,,,,,k,1,3.216,0,1,1,52,1,29_150.jpg,150,,
1308.347,,,,,,,,Nic,2024-01-18_19h45.54.318,Mental Fatigue Training Session,2020.2.4,MacIntel,60,,,,,,,,,,,,,,,,,,,,,k,,,,,,,,,,,,,,,,,,,,,,,,,,,,,,,,,,,,,,,,,,,,,,,,,,,,,,,,k,1,1.354,0,2,2,54,1,29_50.jpg,50,,
1311.912,,,,,,,,Nic,2024-01-18_19h45.54.318,Mental Fatigue Training Session,2020.2.4,MacIntel,60,,,,,,,,,,,,,,,,,,,,,d,,,,,,,,,,,,,,,,,,,,,,,,,,,,,,,,,,,,,,,,,,,,,,,,,,,,,,,,d,1,1.284,0,3,3,47,1,25_50_R.jpg,50,,
1315.413,,,,,,,,Nic,2024-01-18_19h45.54.318,Mental Fatigue Training Session,2020.2.4,MacIntel,60,,,,,,,,,,,,,,,,,,,,,k,,,,,,,,,,,,,,,,,,,,,,,,,,,,,,,,,,,,,,,,,,,,,,,,,,,,,,,,d,0,2.817,0,4,4,12,1,8_150.jpg,150,,
1320.446,,,,,,,,Nic,2024-01-18_19h45.54.318,Mental Fatigue Training Session,2020.2.4,MacIntel,60,,,,,,,,,,,,,,,,,,,,,d,,,,,,,,,,,,,,,,,,,,,,,,,,,,,,,,,,,,,,,,,,,,,,,,,,,,,,,,d,1,6.399,0,5,5,35,1,23_100_R.jpg,100,,
1329.063,,,,,,,,Nic,2024-01-18_19h45.54.318,Mental Fatigue Training Session,2020.2.4,MacIntel,60,,,,,,,,,,,,,,,,,,,,,k,,,,,,,,,,,,,,,,,,,,,,,,,,,,,,,,,,,,,,,,,,,,,,,,,,,,,,,,k,1,3.051,0,6,6,22,1,19_50.jpg,50,,
1334.329,,,,,,,,Nic,2024-01-18_19h45.54.318,Mental Fatigue Training Session,2020.2.4,MacIntel,60,,,,,,,,,,,,,,,,,,,,,d,,,,,,,,,,,,,,,,,,,,,,,,,,,,,,,,,,,,,,,,,,,,,,,,,,,,,,,,d,1,1.901,0,7,7,69,1,31_150_R.jpg,150,,
1338.446,,,,,,,,Nic,2024-01-18_19h45.54.318,Mental Fatigue Training Session,2020.2.4,MacIntel,60,,,,,,,,,,,,,,,,,,,,,d,,,,,,,,,,,,,,,,,,,,,,,,,,,,,,,,,,,,,,,,,,,,,,,,,,,,,,,,d,1,1.584,0,8,8,1,1,1_0_R.jpg,0,,
1342.246,,,,,,,,Nic,2024-01-18_19h45.54.318,Mental Fatigue Training Session,2020.2.4,MacIntel,60,,,,,,,,,,,,,,,,,,,,,k,,,,,,,,,,,,,,,,,,,,,,,,,,,,,,,,,,,,,,,,,,,,,,,,,,,,,,,,k,1,2.15,0,9,9,4,1,1_150.jpg,150,,
1346.611,,,,,,,,Nic,2024-01-18_19h45.54.318,Mental Fatigue Training Session,2020.2.4,MacIntel,60,,,,,,,,,,,,,,,,,,,,,k,,,,,,,,,,,,,,,,,,,,,,,,,,,,,,,,,,,,,,,,,,,,,,,,,,,,,,,,k,1,1.286,0,10,10,0,1,1_0.jpg,0,,
1350.112,,,,,,,,Nic,2024-01-18_19h45.54.318,Mental Fatigue Training Session,2020.2.4,MacIntel,60,,,,,,,,,,,,,,,,,,,,,k,,,,,,,,,,,,,,,,,,,,,,,,,,,,,,,,,,,,,,,,,,,,,,,,,,,,,,,,k,1,1.985,0,11,11,92,1,48_150.jpg,150,,
1354.313,,,,,,,,Nic,2024-01-18_19h45.54.318,Mental Fatigue Training Session,2020.2.4,MacIntel,60,,,,,,,,,,,,,,,,,,,,,d,,,,,,,,,,,,,,,,,,,,,,,,,,,,,,,,,,,,,,,,,,,,,,,,,,,,,,,,d,1,2.067,0,12,12,77,1,39_150_R.jpg,150,,
1358.595,,,,,,,,Nic,2024-01-18_19h45.54.318,Mental Fatigue Training Session,2020.2.4,MacIntel,60,,,,,,,,,,,,,,,,,,,,,k,,,,,,,,,,,,,,,,,,,,,,,,,,,,,,,,,,,,,,,,,,,,,,,,,,,,,,,,,0,,0,13,13,6,1,1_50.jpg,50,,
1368.295,,,,,,,,Nic,2024-01-18_19h45.54.318,Mental Fatigue Training Session,2020.2.4,MacIntel,60,,,,,,,,,,,,,,,,,,,,,k,,,,,,,,,,,,,,,,,,,,,,,,,,,,,,,,,,,,,,,,,,,,,,,,,,,,,,,,,0,,0,14,14,20,1,19_150.jpg,150,,
1377.995,,,,,,,,Nic,2024-01-18_19h45.54.318,Mental Fatigue Training Session,2020.2.4,MacIntel,60,,,,,,,,,,,,,,,,,,,,,d,,,,,,,,,,,,,,,,,,,,,,,,,,,,,,,,,,,,,,,,,,,,,,,,,,,,,,,,,0,,0,15,15,7,1,1_50_R.jpg,50,,
1387.695,,,,,,,,Nic,2024-01-18_19h45.54.318,Mental Fatigue Training Session,2020.2.4,MacIntel,60,,,,,,,,,,,,,,,,,,,,,k,,,,,,,,,,,,,,,,,,,,,,,,,,,,,,,,,,,,,,,,,,,,,,,,,,,,,,,,,0,,0,16,16,94,1,48_50.jpg,50,,
1397.395,,,,,,,,Nic,2024-01-18_19h45.54.318,Mental Fatigue Training Session,2020.2.4,MacIntel,60,,,,,,,,,,,,,,,,,,,,,k,,,,,,,,,,,,,,,,,,,,,,,,,,,,,,,,,,,,,,,,,,,,,,,,,,,,,,,,,0,,0,17,17,88,1,48_0.jpg,0,,
1407.095,,,,,,,,Nic,2024-01-18_19h45.54.318,Mental Fatigue Training Session,2020.2.4,MacIntel,60,,,,,,,,,,,,,,,,,,,,,k,,,,,,,,,,,,,,,,,,,,,,,,,,,,,,,,,,,,,,,,,,,,,,,,,,,,,,,,,0,,0,18,18,70,1,31_50.jpg,50,,
1416.795,,,,,,,,Nic,2024-01-18_19h45.54.318,Mental Fatigue Training Session,2020.2.4,MacIntel,60,,,,,,,,,,,,,,,,,,,,,k,,,,,,,,,,,,,,,,,,,,,,,,,,,,,,,,,,,,,,,,,,,,,,,,,,,,,,,,,0,,0,19,19,14,1,8_50.jpg,50,,
1426.495,,,,,,,,Nic,2024-01-18_19h45.54.318,Mental Fatigue Training Session,2020.2.4,MacIntel,60,,,,,,,,,,,,,,,,,,,,,k,,,,,,,,,,,,,,,,,,,,,,,,,,,,,,,,,,,,,,,,,,,,,,,,,,,,,,,,,0,,0,20,20,2,1,1_100.jpg,100,,
1436.194,,,,,,,,Nic,2024-01-18_19h45.54.318,Mental Fatigue Training Session,2020.2.4,MacIntel,60,,,,,,,,,,,,,,,,,,,,,k,,,,,,,,,,,,,,,,,,,,,,,,,,,,,,,,,,,,,,,,,,,,,,,,,,,,,,,,,0,,0,21,21,26,1,21_100.jpg,100,,
1445.894,,,,,,,,Nic,2024-01-18_19h45.54.318,Mental Fatigue Training Session,2020.2.4,MacIntel,60,,,,,,,,,,,,,,,,,,,,,k,,,,,,,,,,,,,,,,,,,,,,,,,,,,,,,,,,,,,,,,,,,,,,,,,,,,,,,,,0,,0,22,22,32,1,23_0.jpg,0,,
1455.594,,,,,,,,Nic,2024-01-18_19h45.54.318,Mental Fatigue Training Session,2020.2.4,MacIntel,60,,,,,,,,,,,,,,,,,,,,,k,,,,,,,,,,,,,,,,,,,,,,,,,,,,,,,,,,,,,,,,,,,,,,,,,,,,,,,,,0,,0,23,23,72,1,39_0.jpg,0,,
1465.294,,,,,,,,Nic,2024-01-18_19h45.54.318,Mental Fatigue Training Session,2020.2.4,MacIntel,60,,,,,,,,,,,,,,,,,,,,,d,,,,,,,,,,,,,,,,,,,,,,,,,,,,,,,,,,,,,,,,,,,,,,,,,,,,,,,,,0,,0,24,24,65,1,31_0_R.jpg,0,,
1474.993,,,,,,,,Nic,2024-01-18_19h45.54.318,Mental Fatigue Training Session,2020.2.4,MacIntel,60,,,,,,,,,,,,,,,,,,,,,d,,,,,,,,,,,,,,,,,,,,,,,,,,,,,,,,,,,,,,,,,,,,,,,,,,,,,,,,,0,,0,25,25,5,1,1_150_R.jpg,150,,
1484.693,,,,,,,,Nic,2024-01-18_19h45.54.318,Mental Fatigue Training Session,2020.2.4,MacIntel,60,,,,,,,,,,,,,,,,,,,,,k,,,,,,,,,,,,,,,,,,,,,,,,,,,,,,,,,,,,,,,,,,,,,,,,,,,,,,,,,0,,0,26,26,78,1,39_50.jpg,50,,
1494.394,,,,,,,,Nic,2024-01-18_19h45.54.318,Mental Fatigue Training Session,2020.2.4,MacIntel,60,,,,,,,,,,,,,,,,,,,,,k,,,,,,,,,,,,,,,,,,,,,,,,,,,,,,,,,,,,,,,,,,,,,,,,,,,,,,,,,0,,0,27,27,64,1,31_0.jpg,0,,
1504.093,,,,,,,,Nic,2024-01-18_19h45.54.318,Mental Fatigue Training Session,2020.2.4,MacIntel,60,,,,,,,,,,,,,,,,,,,,,k,,,,,,,,,,,,,,,,,,,,,,,,,,,,,,,,,,,,,,,,,,,,,,,,,,,,,,,,,0,,0,28,28,28,1,21_150.jpg,150,,
1513.794,,,,,,,,Nic,2024-01-18_19h45.54.318,Mental Fatigue Training Session,2020.2.4,MacIntel,60,,,,,,,,,,,,,,,,,,,,,d,,,,,,,,,,,,,,,,,,,,,,,,,,,,,,,,,,,,,,,,,,,,,,,,,,,,,,,,,0,,0,29,29,57,1,30_0_R.jpg,0,,
1523.494,,,,,,,,Nic,2024-01-18_19h45.54.318,Mental Fatigue Training Session,2020.2.4,MacIntel,60,,,,,,,,,,,,,,,,,,,,,d,,,,,,,,,,,,,,,,,,,,,,,,,,,,,,,,,,,,,,,,,,,,,,,,,,,,,,,,,0,,0,30,30,37,1,23_150_R.jpg,150,,
1533.193,,,,,,,,Nic,2024-01-18_19h45.54.318,Mental Fatigue Training Session,2020.2.4,MacIntel,60,,,,,,,,,,,,,,,,,,,,,d,,,,,,,,,,,,,,,,,,,,,,,,,,,,,,,,,,,,,,,,,,,,,,,,,,,,,,,,,0,,0,31,31,61,1,30_150_R.jpg,150,,
1542.893,,,,,,,,Nic,2024-01-18_19h45.54.318,Mental Fatigue Training Session,2020.2.4,MacIntel,60,,,,,,,,,,,,,,,,,,,,,d,,,,,,,,,,,,,,,,,,,,,,,,,,,,,,,,,,,,,,,,,,,,,,,,,,,,,,,,,0,,0,32,32,3,1,1_100_R.jpg,100,,
1552.593,,,,,,,,Nic,2024-01-18_19h45.54.318,Mental Fatigue Training Session,2020.2.4,MacIntel,60,,,,,,,,,,,,,,,,,,,,,k,,,,,,,,,,,,,,,,,,,,,,,,,,,,,,,,,,,,,,,,,,,,,,,,,,,,,,,,,0,,0,33,33,50,1,29_100.jpg,100,,
1562.293,,,,,,,,Nic,2024-01-18_19h45.54.318,Mental Fatigue Training Session,2020.2.4,MacIntel,60,,,,,,,,,,,,,,,,,,,,,k,,,,,,,,,,,,,,,,,,,,,,,,,,,,,,,,,,,,,,,,,,,,,,,,,,,,,,,,,0,,0,34,34,48,1,29_0.jpg,0,,
1571.993,,,,,,,,Nic,2024-01-18_19h45.54.318,Mental Fatigue Training Session,2020.2.4,MacIntel,60,,,,,,,,,,,,,,,,,,,,,d,,,,,,,,,,,,,,,,,,,,,,,,,,,,,,,,,,,,,,,,,,,,,,,,,,,,,,,,k,0,1.101,0,35,35,73,1,39_0_R.jpg,0,,
1575.309,,,,,,,,Nic,2024-01-18_19h45.54.318,Mental Fatigue Training Session,2020.2.4,MacIntel,60,,,,,,,,,,,,,,,,,,,,,d,,,,,,,,,,,,,,,,,,,,,,,,,,,,,,,,,,,,,,,,,,,,,,,,,,,,,,,,k,0,0.834,0,36,36,51,1,29_100_R.jpg,100,,
1578.36,,,,,,,,Nic,2024-01-18_19h45.54.318,Mental Fatigue Training Session,2020.2.4,MacIntel,60,,,,,,,,,,,,,,,,,,,,,d,,,,,,,,,,,,,,,,,,,,,,,,,,,,,,,,,,,,,,,,,,,,,,,,,,,,,,,,,0,,0,37,37,85,1,43_150_R.jpg,150,,
1588.059,,,,,,,,Nic,2024-01-18_19h45.54.318,Mental Fatigue Training Session,2020.2.4,MacIntel,60,,,,,,,,,,,,,,,,,,,,,d,,,,,,,,,,,,,,,,,,,,,,,,,,,,,,,,,,,,,,,,,,,,,,,,,,,,,,,,,0,,0,38,38,11,1,8_100_R.jpg,100,,
1597.765,,,,,,,,Nic,2024-01-18_19h45.54.318,Mental Fatigue Training Session,2020.2.4,MacIntel,60,,,,,,,,,,,,,,,,,,,,,k,,,,,,,,,,,,,,,,,,,,,,,,,,,,,,,,,,,,,,,,,,,,,,,,,,,,,,,,,0,,0,39,39,84,1,43_150.jpg,150,,
1727.891,,,,,,,,Nic,2024-01-18_19h45.54.318,Mental Fatigue Training Session,2020.2.4,MacIntel,60,,,,,,,,,,,,,,,,,,,,,,,,,,,,,,,,,,,,,,,,,,,,,,,,,,,,,,,,,,,,,,,,,,,,,,,,,,,,,,,,,,,,,,,space,121.604
