elapsed.time,key_resp.keys,key_resp.rt,instrLoop.thisRepN,instrLoop.thisTrialN,instrLoop.thisN,instrLoop.thisIndex,instrLoop.ran,participant,date,expName,psychopyVersion,OS,frameRate,key_resp_2.keys,key_resp_2.rt,instrAXCPTLoop.thisRepN,instrAXCPTLoop.thisTrialN,instrAXCPTLoop.thisN,instrAXCPTLoop.thisIndex,instrAXCPTLoop.ran,AXCPT_resp.keys,AXCPT_resp.corr,AXCPT_resp.rt,AXCPTtrialsLoop.thisRepN,AXCPTtrialsLoop.thisTrialN,AXCPTtrialsLoop.thisN,AXCPTtrialsLoop.thisIndex,AXCPTtrialsLoop.ran,trialNumber,trial,cueType,probeType,trialType,corrResponse,break1.duration,restBreak1_key_resp.keys,restBreak1_key_resp.rt,key_resp_3.keys,key_resp_3.rt,instrNBackLoop.thisRepN,instrNBackLoop.thisTrialN,instrNBackLoop.thisN,instrNBackLoop.thisIndex,instrNBackLoop.ran,NBack_resp_1.keys,NBack_resp_1.rt,NBackTargetLoop.thisRepN,NBackTargetLoop.thisTrialN,NBackTargetLoop.thisN,NBackTargetLoop.thisIndex,NBackTargetLoop.ran,NBack_resp_2.keys,NBack_resp_2.corr,NBack_resp_2.rt,NBackTrialsLoop.thisRepN,NBackTrialsLoop.thisTrialN,NBackTrialsLoop.thisN,NBackTrialsLoop.thisIndex,NBackTrialsLoop.ran,break2.duration,restBreak2_key_resp.keys,restBreak2_key_resp.rt,key_resp_4.keys,key_resp_4.rt,instrSearchLoop.thisRepN,instrSearchLoop.thisTrialN,instrSearchLoop.thisN,instrSearchLoop.thisIndex,instrSearchLoop.ran,key_resp_6.keys,key_resp_6.corr,key_resp_6.rt,searchLoop.thisRepN,searchLoop.thisTrialN,searchLoop.thisN,searchLoop.thisIndex,searchLoop.ran,cond,targetLetter,break3.duration,restBreak3_key_resp.keys,restBreak3_key_resp.rt,key_resp_5.keys,key_resp_5.rt,instrMentRotaLoop.thisRepN,instrMentRotaLoop.thisTrialN,instrMentRotaLoop.thisN,instrMentRotaLoop.thisIndex,instrMentRotaLoop.ran,MROT_resp.keys,MROT_resp.corr,MROT_resp.rt,mentRotTrialsLooop.thisRepN,mentRotTrialsLooop.thisTrialN,mentRotTrialsLooop.thisN,mentRotTrialsLooop.thisIndex,mentRotTrialsLooop.ran,imagefile,orientation,end_resp.keys,end_resp.rt
4.861,right,4.779,0,0,0,0,1,,2024-01-20_09h57.36.891,Mental Fatigue Training Session,2020.2.4,MacIntel,60,,,,,,,,,,,,,,,,,,,,,,,,,,,,,,,,,,,,,,,,,,,,,,,,,,,,,,,,,,,,,,,,,,,,,,,,,,,,,,,,,,,,,,,,
10.346,right,5.429,1,0,1,0,1,,2024-01-20_09h57.36.891,Mental Fatigue Training Session,2020.2.4,MacIntel,60,,,,,,,,,,,,,,,,,,,,,,,,,,,,,,,,,,,,,,,,,,,,,,,,,,,,,,,,,,,,,,,,,,,,,,,,,,,,,,,,,,,,,,,,
14.882,right,4.487,2,0,2,0,1,,2024-01-20_09h57.36.891,Mental Fatigue Training Session,2020.2.4,MacIntel,60,,,,,,,,,,,,,,,,,,,,,,,,,,,,,,,,,,,,,,,,,,,,,,,,,,,,,,,,,,,,,,,,,,,,,,,,,,,,,,,,,,,,,,,,
16.915,,,,,,,,,2024-01-20_09h57.36.891,Mental Fatigue Training Session,2020.2.4,MacIntel,60,right,1.973,0,0,0,0,1,,,,,,,,,,,,,,,,,,,,,,,,,,,,,,,,,,,,,,,,,,,,,,,,,,,,,,,,,,,,,,,,,,,,,,,,,,,,,,,,,
18.215,,,,,,,,,2024-01-20_09h57.36.891,Mental Fatigue Training Session,2020.2.4,MacIntel,60,right,1.247,1,0,1,0,1,,,,,,,,,,,,,,,,,,,,,,,,,,,,,,,,,,,,,,,,,,,,,,,,,,,,,,,,,,,,,,,,,,,,,,,,,,,,,,,,,
26.002,,,,,,,,,2024-01-20_09h57.36.891,Mental Fatigue Training Session,2020.2.4,MacIntel,60,k,7.708,2,0,2,0,1,,,,,,,,,,,,,,,,,,,,,,,,,,,,,,,,,,,,,,,,,,,,,,,,,,,,,,,,,,,,,,,,,,,,,,,,,,,,,,,,,
27.218,,,,,,,,,2024-01-20_09h57.36.891,Mental Fatigue Training Session,2020.2.4,MacIntel,60,,,,,,,,d,1,0.513,0,0,0,8,1,9,AY,A,Y,cueWrong,d,,,,,,,,,,,,,,,,,,,,,,,,,,,,,,,,,,,,,,,,,,,,,,,,,,,,,,,,,,,,,,,,,,,
34.438,,,,,,,,,2024-01-20_09h57.36.891,Mental Fatigue Training Session,2020.2.4,MacIntel,60,,,,,,,,k,1,0.383,0,1,1,6,1,7,AX,A,X,target,k,,,,,,,,,,,,,,,,,,,,,,,,,,,,,,,,,,,,,,,,,,,,,,,,,,,,,,,,,,,,,,,,,,,
41.54,,,,,,,,,2024-01-20_09h57.36.891,Mental Fatigue Training Session,2020.2.4,MacIntel,60,,,,,,,,k,1,0.349,0,2,2,1,1,2,AX,A,X,target,k,,,,,,,,,,,,,,,,,,,,,,,,,,,,,,,,,,,,,,,,,,,,,,,,,,,,,,,,,,,,,,,,,,,
48.61,,,,,,,,,2024-01-20_09h57.36.891,Mental Fatigue Training Session,2020.2.4,MacIntel,60,,,,,,,,d,1,0.28,0,3,3,9,1,10,BY,B,Y,bothWrong,d,,,,,,,,,,,,,,,,,,,,,,,,,,,,,,,,,,,,,,,,,,,,,,,,,,,,,,,,,,,,,,,,,,,
55.612,,,,,,,,,2024-01-20_09h57.36.891,Mental Fatigue Training Session,2020.2.4,MacIntel,60,,,,,,,,k,1,0.378,0,4,4,2,1,3,AX,A,X,target,k,,,,,,,,,,,,,,,,,,,,,,,,,,,,,,,,,,,,,,,,,,,,,,,,,,,,,,,,,,,,,,,,,,,
62.715,,,,,,,,,2024-01-20_09h57.36.891,Mental Fatigue Training Session,2020.2.4,MacIntel,60,,,,,,,,k,1,0.369,0,5,5,3,1,4,AX,A,X,target,k,,,,,,,,,,,,,,,,,,,,,,,,,,,,,,,,,,,,,,,,,,,,,,,,,,,,,,,,,,,,,,,,,,,
69.802,,,,,,,,,2024-01-20_09h57.36.891,Mental Fatigue Training Session,2020.2.4,MacIntel,60,,,,,,,,d,1,0.531,0,6,6,7,1,8,BX,B,X,probeWrong,d,,,,,,,,,,,,,,,,,,,,,,,,,,,,,,,,,,,,,,,,,,,,,,,,,,,,,,,,,,,,,,,,,,,
77.053,,,,,,,,,2024-01-20_09h57.36.891,Mental Fatigue Training Session,2020.2.4,MacIntel,60,,,,,,,,k,1,0.381,0,7,7,5,1,6,AX,A,X,target,k,,,,,,,,,,,,,,,,,,,,,,,,,,,,,,,,,,,,,,,,,,,,,,,,,,,,,,,,,,,,,,,,,,,
84.157,,,,,,,,,2024-01-20_09h57.36.891,Mental Fatigue Training Session,2020.2.4,MacIntel,60,,,,,,,,k,1,0.384,0,8,8,0,1,1,AX,A,X,target,k,,,,,,,,,,,,,,,,,,,,,,,,,,,,,,,,,,,,,,,,,,,,,,,,,,,,,,,,,,,,,,,,,,,
91.259,,,,,,,,,2024-01-20_09h57.36.891,Mental Fatigue Training Session,2020.2.4,MacIntel,60,,,,,,,,k,1,0.333,0,9,9,4,1,5,AX,A,X,target,k,,,,,,,,,,,,,,,,,,,,,,,,,,,,,,,,,,,,,,,,,,,,,,,,,,,,,,,,,,,,,,,,,,,
98.311,,,,,,,,,2024-01-20_09h57.36.891,Mental Fatigue Training Session,2020.2.4,MacIntel,60,,,,,,,,d,1,0.534,1,0,10,7,1,8,BX,B,X,probeWrong,d,,,,,,,,,,,,,,,,,,,,,,,,,,,,,,,,,,,,,,,,,,,,,,,,,,,,,,,,,,,,,,,,,,,
105.565,,,,,,,,,2024-01-20_09h57.36.891,Mental Fatigue Training Session,2020.2.4,MacIntel,60,,,,,,,,d,1,0.346,1,1,11,8,1,9,AY,A,Y,cueWrong,d,,,,,,,,,,,,,,,,,,,,,,,,,,,,,,,,,,,,,,,,,,,,,,,,,,,,,,,,,,,,,,,,,,,
112.632,,,,,,,,,2024-01-20_09h57.36.891,Mental Fatigue Training Session,2020.2.4,MacIntel,60,,,,,,,,d,1,0.529,1,2,12,9,1,10,BY,B,Y,bothWrong,d,,,,,,,,,,,,,,,,,,,,,,,,,,,,,,,,,,,,,,,,,,,,,,,,,,,,,,,,,,,,,,,,,,,
119.887,,,,,,,,,2024-01-20_09h57.36.891,Mental Fatigue Training Session,2020.2.4,MacIntel,60,,,,,,,,k,1,0.376,1,3,13,0,1,1,AX,A,X,target,k,,,,,,,,,,,,,,,,,,,,,,,,,,,,,,,,,,,,,,,,,,,,,,,,,,,,,,,,,,,,,,,,,,,
126.988,,,,,,,,,2024-01-20_09h57.36.891,Mental Fatigue Training Session,2020.2.4,MacIntel,60,,,,,,,,k,1,0.435,1,4,14,6,1,7,AX,A,X,target,k,,,,,,,,,,,,,,,,,,,,,,,,,,,,,,,,,,,,,,,,,,,,,,,,,,,,,,,,,,,,,,,,,,,
134.141,,,,,,,,,2024-01-20_09h57.36.891,Mental Fatigue Training Session,2020.2.4,MacIntel,60,,,,,,,,k,1,0.339,1,5,15,1,1,2,AX,A,X,target,k,,,,,,,,,,,,,,,,,,,,,,,,,,,,,,,,,,,,,,,,,,,,,,,,,,,,,,,,,,,,,,,,,,,
141.194,,,,,,,,,2024-01-20_09h57.36.891,Mental Fatigue Training Session,2020.2.4,MacIntel,60,,,,,,,,k,1,0.351,1,6,16,4,1,5,AX,A,X,target,k,,,,,,,,,,,,,,,,,,,,,,,,,,,,,,,,,,,,,,,,,,,,,,,,,,,,,,,,,,,,,,,,,,,
148.262,,,,,,,,,2024-01-20_09h57.36.891,Mental Fatigue Training Session,2020.2.4,MacIntel,60,,,,,,,,k,1,0.383,1,7,17,2,1,3,AX,A,X,target,k,,,,,,,,,,,,,,,,,,,,,,,,,,,,,,,,,,,,,,,,,,,,,,,,,,,,,,,,,,,,,,,,,,,
155.366,,,,,,,,,2024-01-20_09h57.36.891,Mental Fatigue Training Session,2020.2.4,MacIntel,60,,,,,,,,k,1,0.434,1,8,18,5,1,6,AX,A,X,target,k,,,,,,,,,,,,,,,,,,,,,,,,,,,,,,,,,,,,,,,,,,,,,,,,,,,,,,,,,,,,,,,,,,,
162.517,,,,,,,,,2024-01-20_09h57.36.891,Mental Fatigue Training Session,2020.2.4,MacIntel,60,,,,,,,,k,1,0.384,1,9,19,3,1,4,AX,A,X,target,k,,,,,,,,,,,,,,,,,,,,,,,,,,,,,,,,,,,,,,,,,,,,,,,,,,,,,,,,,,,,,,,,,,,
169.621,,,,,,,,,2024-01-20_09h57.36.891,Mental Fatigue Training Session,2020.2.4,MacIntel,60,,,,,,,,k,1,0.368,2,0,20,5,1,6,AX,A,X,target,k,,,,,,,,,,,,,,,,,,,,,,,,,,,,,,,,,,,,,,,,,,,,,,,,,,,,,,,,,,,,,,,,,,,
176.707,,,,,,,,,2024-01-20_09h57.36.891,Mental Fatigue Training Session,2020.2.4,MacIntel,60,,,,,,,,d,1,0.394,2,1,21,9,1,10,BY,B,Y,bothWrong,d,,,,,,,,,,,,,,,,,,,,,,,,,,,,,,,,,,,,,,,,,,,,,,,,,,,,,,,,,,,,,,,,,,,
183.826,,,,,,,,,2024-01-20_09h57.36.891,Mental Fatigue Training Session,2020.2.4,MacIntel,60,,,,,,,,k,1,0.361,2,2,22,4,1,5,AX,A,X,target,k,,,,,,,,,,,,,,,,,,,,,,,,,,,,,,,,,,,,,,,,,,,,,,,,,,,,,,,,,,,,,,,,,,,
190.912,,,,,,,,,2024-01-20_09h57.36.891,Mental Fatigue Training Session,2020.2.4,MacIntel,60,,,,,,,,k,1,0.337,2,3,23,2,1,3,AX,A,X,target,k,,,,,,,,,,,,,,,,,,,,,,,,,,,,,,,,,,,,,,,,,,,,,,,,,,,,,,,,,,,,,,,,,,,
197.964,,,,,,,,,2024-01-20_09h57.36.891,Mental Fatigue Training Session,2020.2.4,MacIntel,60,,,,,,,,d,1,0.509,2,4,24,7,1,8,BX,B,X,probeWrong,d,,,,,,,,,,,,,,,,,,,,,,,,,,,,,,,,,,,,,,,,,,,,,,,,,,,,,,,,,,,,,,,,,,,
205.201,,,,,,,,,2024-01-20_09h57.36.891,Mental Fatigue Training Session,2020.2.4,MacIntel,60,,,,,,,,k,1,0.363,2,5,25,3,1,4,AX,A,X,target,k,,,,,,,,,,,,,,,,,,,,,,,,,,,,,,,,,,,,,,,,,,,,,,,,,,,,,,,,,,,,,,,,,,,
212.286,,,,,,,,,2024-01-20_09h57.36.891,Mental Fatigue Training Session,2020.2.4,MacIntel,60,,,,,,,,d,1,0.367,2,6,26,8,1,9,AY,A,Y,cueWrong,d,,,,,,,,,,,,,,,,,,,,,,,,,,,,,,,,,,,,,,,,,,,,,,,,,,,,,,,,,,,,,,,,,,,
219.372,,,,,,,,,2024-01-20_09h57.36.891,Mental Fatigue Training Session,2020.2.4,MacIntel,60,,,,,,,,k,1,0.383,2,7,27,6,1,7,AX,A,X,target,k,,,,,,,,,,,,,,,,,,,,,,,,,,,,,,,,,,,,,,,,,,,,,,,,,,,,,,,,,,,,,,,,,,,
226.474,,,,,,,,,2024-01-20_09h57.36.891,Mental Fatigue Training Session,2020.2.4,MacIntel,60,,,,,,,,k,1,0.405,2,8,28,0,1,1,AX,A,X,target,k,,,,,,,,,,,,,,,,,,,,,,,,,,,,,,,,,,,,,,,,,,,,,,,,,,,,,,,,,,,,,,,,,,,
233.593,,,,,,,,,2024-01-20_09h57.36.891,Mental Fatigue Training Session,2020.2.4,MacIntel,60,,,,,,,,k,1,0.372,2,9,29,1,1,2,AX,A,X,target,k,,,,,,,,,,,,,,,,,,,,,,,,,,,,,,,,,,,,,,,,,,,,,,,,,,,,,,,,,,,,,,,,,,,
240.696,,,,,,,,,2024-01-20_09h57.36.891,Mental Fatigue Training Session,2020.2.4,MacIntel,60,,,,,,,,k,1,0.381,3,0,30,5,1,6,AX,A,X,target,k,,,,,,,,,,,,,,,,,,,,,,,,,,,,,,,,,,,,,,,,,,,,,,,,,,,,,,,,,,,,,,,,,,,
247.791,,,,,,,,,2024-01-20_09h57.36.891,Mental Fatigue Training Session,2020.2.4,MacIntel,60,,,,,,,,d,1,0.514,3,1,31,7,1,8,BX,B,X,probeWrong,d,,,,,,,,,,,,,,,,,,,,,,,,,,,,,,,,,,,,,,,,,,,,,,,,,,,,,,,,,,,,,,,,,,,
255.018,,,,,,,,,2024-01-20_09h57.36.891,Mental Fatigue Training Session,2020.2.4,MacIntel,60,,,,,,,,k,1,0.43,3,2,32,3,1,4,AX,A,X,target,k,,,,,,,,,,,,,,,,,,,,,,,,,,,,,,,,,,,,,,,,,,,,,,,,,,,,,,,,,,,,,,,,,,,
262.161,,,,,,,,,2024-01-20_09h57.36.891,Mental Fatigue Training Session,2020.2.4,MacIntel,60,,,,,,,,k,1,0.367,3,3,33,6,1,7,AX,A,X,target,k,,,,,,,,,,,,,,,,,,,,,,,,,,,,,,,,,,,,,,,,,,,,,,,,,,,,,,,,,,,,,,,,,,,
269.241,,,,,,,,,2024-01-20_09h57.36.891,Mental Fatigue Training Session,2020.2.4,MacIntel,60,,,,,,,,d,1,0.328,3,4,34,9,1,10,BY,B,Y,bothWrong,d,,,,,,,,,,,,,,,,,,,,,,,,,,,,,,,,,,,,,,,,,,,,,,,,,,,,,,,,,,,,,,,,,,,
276.292,,,,,,,,,2024-01-20_09h57.36.891,Mental Fatigue Training Session,2020.2.4,MacIntel,60,,,,,,,,k,1,0.363,3,5,35,4,1,5,AX,A,X,target,k,,,,,,,,,,,,,,,,,,,,,,,,,,,,,,,,,,,,,,,,,,,,,,,,,,,,,,,,,,,,,,,,,,,
283.378,,,,,,,,,2024-01-20_09h57.36.891,Mental Fatigue Training Session,2020.2.4,MacIntel,60,,,,,,,,d,1,0.317,3,6,36,8,1,9,AY,A,Y,cueWrong,d,,,,,,,,,,,,,,,,,,,,,,,,,,,,,,,,,,,,,,,,,,,,,,,,,,,,,,,,,,,,,,,,,,,
290.397,,,,,,,,,2024-01-20_09h57.36.891,Mental Fatigue Training Session,2020.2.4,MacIntel,60,,,,,,,,k,1,0.382,3,7,37,0,1,1,AX,A,X,target,k,,,,,,,,,,,,,,,,,,,,,,,,,,,,,,,,,,,,,,,,,,,,,,,,,,,,,,,,,,,,,,,,,,,
297.499,,,,,,,,,2024-01-20_09h57.36.891,Mental Fatigue Training Session,2020.2.4,MacIntel,60,,,,,,,,k,1,0.418,3,8,38,2,1,3,AX,A,X,target,k,,,,,,,,,,,,,,,,,,,,,,,,,,,,,,,,,,,,,,,,,,,,,,,,,,,,,,,,,,,,,,,,,,,
304.631,,,,,,,,,2024-01-20_09h57.36.891,Mental Fatigue Training Session,2020.2.4,MacIntel,60,,,,,,,,k,1,0.569,3,9,39,1,1,2,AX,A,X,target,k,,,,,,,,,,,,,,,,,,,,,,,,,,,,,,,,,,,,,,,,,,,,,,,,,,,,,,,,,,,,,,,,,,,
311.938,,,,,,,,,2024-01-20_09h57.36.891,Mental Fatigue Training Session,2020.2.4,MacIntel,60,,,,,,,,d,1,0.644,4,0,40,7,1,8,BX,B,X,probeWrong,d,,,,,,,,,,,,,,,,,,,,,,,,,,,,,,,,,,,,,,,,,,,,,,,,,,,,,,,,,,,,,,,,,,,
319.275,,,,,,,,,2024-01-20_09h57.36.891,Mental Fatigue Training Session,2020.2.4,MacIntel,60,,,,,,,,d,1,0.212,4,1,41,9,1,10,BY,B,Y,bothWrong,d,,,,,,,,,,,,,,,,,,,,,,,,,,,,,,,,,,,,,,,,,,,,,,,,,,,,,,,,,,,,,,,,,,,
326.211,,,,,,,,,2024-01-20_09h57.36.891,Mental Fatigue Training Session,2020.2.4,MacIntel,60,,,,,,,,k,1,0.331,4,2,42,1,1,2,AX,A,X,target,k,,,,,,,,,,,,,,,,,,,,,,,,,,,,,,,,,,,,,,,,,,,,,,,,,,,,,,,,,,,,,,,,,,,
366.675,,,,,,,,,2024-01-20_09h57.36.891,Mental Fatigue Training Session,2020.2.4,MacIntel,60,,,,,,,,,,,,,,,,,,,,,,6.686,right,6.656,right,27.875,0,0,0,0,1,,,,,,,,,,,,,,,,,,,,,,,,,,,,,,,,,,,,,,,,,,,,,,,,,,,,,,,,,
381.98,,,,,,,,,2024-01-20_09h57.36.891,Mental Fatigue Training Session,2020.2.4,MacIntel,60,,,,,,,,,,,,,,,,,,,,,,,,,right,15.263,1,0,1,0,1,,,,,,,,,,,,,,,,,,,,,,,,,,,,,,,,,,,,,,,,,,,,,,,,,,,,,,,,,
388.739,,,,,,,,,2024-01-20_09h57.36.891,Mental Fatigue Training Session,2020.2.4,MacIntel,60,,,,,,,,,,,,,,,,,,,,,,,,,k,6.715,2,0,2,0,1,,,,,,,,,,,,,,,,,,,,,,,,,,,,,,,,,,,,,,,,,,,,,,,,,,,,,,,,,
389.935,,,,,,,,,2024-01-20_09h57.36.891,Mental Fatigue Training Session,2020.2.4,MacIntel,60,,,,,,,,,,,,,,,,,,,,,,,,,,,,,,,,d,1.429,0,0,0,0,1,,,,,,,,,,,,,,,,,,,,,,,,,,,,,,,,,,,,,,,,,,,,,,,,,,
392.583,,,,,,,,,2024-01-20_09h57.36.891,Mental Fatigue Training Session,2020.2.4,MacIntel,60,,,,,,,,,,,,,,,,,,,,,,,,,,,,,,,,d,0.895,1,0,1,0,1,,,,,,,,,,,,,,,,,,,,,,,,,,,,,,,,,,,,,,,,,,,,,,,,,,
394.702,,,,,,,,,2024-01-20_09h57.36.891,Mental Fatigue Training Session,2020.2.4,MacIntel,60,,,,,,,,,,,,,,,,,,,,,,,,,,,,,,,,d,0.929,2,0,2,0,1,,,,,,,,,,,,,,,,,,,,,,,,,,,,,,,,,,,,,,,,,,,,,,,,,,
396.861,,,,,,,,,2024-01-20_09h57.36.891,Mental Fatigue Training Session,2020.2.4,MacIntel,60,,,,,,,,,,,,,,,,,10,,,nonTarget,d,,,,,,,,,,,,,,,,,,d,1,0.734,0,0,0,9,1,,,,,,,,,,,,,,,,,,,,,,,,,,,,,,,,,,,,,,,,,,
399.821,,,,,,,,,2024-01-20_09h57.36.891,Mental Fatigue Training Session,2020.2.4,MacIntel,60,,,,,,,,,,,,,,,,,1,,,target,k,,,,,,,,,,,,,,,,,,k,1,0.588,0,1,1,0,1,,,,,,,,,,,,,,,,,,,,,,,,,,,,,,,,,,,,,,,,,,
402.621,,,,,,,,,2024-01-20_09h57.36.891,Mental Fatigue Training Session,2020.2.4,MacIntel,60,,,,,,,,,,,,,,,,,2,,,target,k,,,,,,,,,,,,,,,,,,k,1,0.68,0,2,2,1,1,,,,,,,,,,,,,,,,,,,,,,,,,,,,,,,,,,,,,,,,,,
405.511,,,,,,,,,2024-01-20_09h57.36.891,Mental Fatigue Training Session,2020.2.4,MacIntel,60,,,,,,,,,,,,,,,,,5,,,nonTarget,d,,,,,,,,,,,,,,,,,,k,0,0.7,0,3,3,4,1,,,,,,,,,,,,,,,,,,,,,,,,,,,,,,,,,,,,,,,,,,
408.427,,,,,,,,,2024-01-20_09h57.36.891,Mental Fatigue Training Session,2020.2.4,MacIntel,60,,,,,,,,,,,,,,,,,8,,,nonTarget,d,,,,,,,,,,,,,,,,,,k,0,1.164,0,4,4,7,1,,,,,,,,,,,,,,,,,,,,,,,,,,,,,,,,,,,,,,,,,,
411.808,,,,,,,,,2024-01-20_09h57.36.891,Mental Fatigue Training Session,2020.2.4,MacIntel,60,,,,,,,,,,,,,,,,,6,,,nonTarget,d,,,,,,,,,,,,,,,,,,d,1,0.563,0,5,5,5,1,,,,,,,,,,,,,,,,,,,,,,,,,,,,,,,,,,,,,,,,,,
414.593,,,,,,,,,2024-01-20_09h57.36.891,Mental Fatigue Training Session,2020.2.4,MacIntel,60,,,,,,,,,,,,,,,,,3,,,target,k,,,,,,,,,,,,,,,,,,k,1,0.86,0,6,6,2,1,,,,,,,,,,,,,,,,,,,,,,,,,,,,,,,,,,,,,,,,,,
417.676,,,,,,,,,2024-01-20_09h57.36.891,Mental Fatigue Training Session,2020.2.4,MacIntel,60,,,,,,,,,,,,,,,,,7,,,nonTarget,d,,,,,,,,,,,,,,,,,,k,0,1.23,0,7,7,6,1,,,,,,,,,,,,,,,,,,,,,,,,,,,,,,,,,,,,,,,,,,
421.111,,,,,,,,,2024-01-20_09h57.36.891,Mental Fatigue Training Session,2020.2.4,MacIntel,60,,,,,,,,,,,,,,,,,9,,,nonTarget,d,,,,,,,,,,,,,,,,,,k,0,0.971,0,8,8,8,1,,,,,,,,,,,,,,,,,,,,,,,,,,,,,,,,,,,,,,,,,,
424.296,,,,,,,,,2024-01-20_09h57.36.891,Mental Fatigue Training Session,2020.2.4,MacIntel,60,,,,,,,,,,,,,,,,,4,,,nonTarget,d,,,,,,,,,,,,,,,,,,k,0,1.049,0,9,9,3,1,,,,,,,,,,,,,,,,,,,,,,,,,,,,,,,,,,,,,,,,,,
427.553,,,,,,,,,2024-01-20_09h57.36.891,Mental Fatigue Training Session,2020.2.4,MacIntel,60,,,,,,,,,,,,,,,,,9,,,nonTarget,d,,,,,,,,,,,,,,,,,,d,1,0.826,1,0,10,8,1,,,,,,,,,,,,,,,,,,,,,,,,,,,,,,,,,,,,,,,,,,
430.598,,,,,,,,,2024-01-20_09h57.36.891,Mental Fatigue Training Session,2020.2.4,MacIntel,60,,,,,,,,,,,,,,,,,4,,,nonTarget,d,,,,,,,,,,,,,,,,,,d,1,1.196,1,1,11,3,1,,,,,,,,,,,,,,,,,,,,,,,,,,,,,,,,,,,,,,,,,,
434.017,,,,,,,,,2024-01-20_09h57.36.891,Mental Fatigue Training Session,2020.2.4,MacIntel,60,,,,,,,,,,,,,,,,,6,,,nonTarget,d,,,,,,,,,,,,,,,,,,d,1,1.229,1,2,12,5,1,,,,,,,,,,,,,,,,,,,,,,,,,,,,,,,,,,,,,,,,,,
437.45,,,,,,,,,2024-01-20_09h57.36.891,Mental Fatigue Training Session,2020.2.4,MacIntel,60,,,,,,,,,,,,,,,,,3,,,target,k,,,,,,,,,,,,,,,,,,k,1,0.906,1,3,13,2,1,,,,,,,,,,,,,,,,,,,,,,,,,,,,,,,,,,,,,,,,,,
440.569,,,,,,,,,2024-01-20_09h57.36.891,Mental Fatigue Training Session,2020.2.4,MacIntel,60,,,,,,,,,,,,,,,,,7,,,nonTarget,d,,,,,,,,,,,,,,,,,,d,1,1.025,1,4,14,6,1,,,,,,,,,,,,,,,,,,,,,,,,,,,,,,,,,,,,,,,,,,
443.809,,,,,,,,,2024-01-20_09h57.36.891,Mental Fatigue Training Session,2020.2.4,MacIntel,60,,,,,,,,,,,,,,,,,5,,,nonTarget,d,,,,,,,,,,,,,,,,,,d,1,0.985,1,5,15,4,1,,,,,,,,,,,,,,,,,,,,,,,,,,,,,,,,,,,,,,,,,,
447.008,,,,,,,,,2024-01-20_09h57.36.891,Mental Fatigue Training Session,2020.2.4,MacIntel,60,,,,,,,,,,,,,,,,,8,,,nonTarget,d,,,,,,,,,,,,,,,,,,d,1,0.998,1,6,16,7,1,,,,,,,,,,,,,,,,,,,,,,,,,,,,,,,,,,,,,,,,,,
450.24,,,,,,,,,2024-01-20_09h57.36.891,Mental Fatigue Training Session,2020.2.4,MacIntel,60,,,,,,,,,,,,,,,,,10,,,nonTarget,d,,,,,,,,,,,,,,,,,,d,1,0.97,1,7,17,9,1,,,,,,,,,,,,,,,,,,,,,,,,,,,,,,,,,,,,,,,,,,
453.423,,,,,,,,,2024-01-20_09h57.36.891,Mental Fatigue Training Session,2020.2.4,MacIntel,60,,,,,,,,,,,,,,,,,1,,,target,k,,,,,,,,,,,,,,,,,,k,1,1.546,1,8,18,0,1,,,,,,,,,,,,,,,,,,,,,,,,,,,,,,,,,,,,,,,,,,
457.191,,,,,,,,,2024-01-20_09h57.36.891,Mental Fatigue Training Session,2020.2.4,MacIntel,60,,,,,,,,,,,,,,,,,2,,,target,k,,,,,,,,,,,,,,,,,,k,1,0.781,1,9,19,1,1,,,,,,,,,,,,,,,,,,,,,,,,,,,,,,,,,,,,,,,,,,
460.189,,,,,,,,,2024-01-20_09h57.36.891,Mental Fatigue Training Session,2020.2.4,MacIntel,60,,,,,,,,,,,,,,,,,3,,,target,k,,,,,,,,,,,,,,,,,,d,0,1.359,2,0,20,2,1,,,,,,,,,,,,,,,,,,,,,,,,,,,,,,,,,,,,,,,,,,
463.776,,,,,,,,,2024-01-20_09h57.36.891,Mental Fatigue Training Session,2020.2.4,MacIntel,60,,,,,,,,,,,,,,,,,8,,,nonTarget,d,,,,,,,,,,,,,,,,,,d,1,1.07,2,1,21,7,1,,,,,,,,,,,,,,,,,,,,,,,,,,,,,,,,,,,,,,,,,,
467.061,,,,,,,,,2024-01-20_09h57.36.891,Mental Fatigue Training Session,2020.2.4,MacIntel,60,,,,,,,,,,,,,,,,,6,,,nonTarget,d,,,,,,,,,,,,,,,,,,d,1,0.963,2,2,22,5,1,,,,,,,,,,,,,,,,,,,,,,,,,,,,,,,,,,,,,,,,,,
470.247,,,,,,,,,2024-01-20_09h57.36.891,Mental Fatigue Training Session,2020.2.4,MacIntel,60,,,,,,,,,,,,,,,,,2,,,target,k,,,,,,,,,,,,,,,,,,k,1,1.207,2,3,23,1,1,,,,,,,,,,,,,,,,,,,,,,,,,,,,,,,,,,,,,,,,,,
473.652,,,,,,,,,2024-01-20_09h57.36.891,Mental Fatigue Training Session,2020.2.4,MacIntel,60,,,,,,,,,,,,,,,,,1,,,target,k,,,,,,,,,,,,,,,,,,k,1,0.913,2,4,24,0,1,,,,,,,,,,,,,,,,,,,,,,,,,,,,,,,,,,,,,,,,,,
476.799,,,,,,,,,2024-01-20_09h57.36.891,Mental Fatigue Training Session,2020.2.4,MacIntel,60,,,,,,,,,,,,,,,,,5,,,nonTarget,d,,,,,,,,,,,,,,,,,,d,1,0.796,2,5,25,4,1,,,,,,,,,,,,,,,,,,,,,,,,,,,,,,,,,,,,,,,,,,
479.81,,,,,,,,,2024-01-20_09h57.36.891,Mental Fatigue Training Session,2020.2.4,MacIntel,60,,,,,,,,,,,,,,,,,10,,,nonTarget,d,,,,,,,,,,,,,,,,,,d,1,0.972,2,6,26,9,1,,,,,,,,,,,,,,,,,,,,,,,,,,,,,,,,,,,,,,,,,,
482.984,,,,,,,,,2024-01-20_09h57.36.891,Mental Fatigue Training Session,2020.2.4,MacIntel,60,,,,,,,,,,,,,,,,,9,,,nonTarget,d,,,,,,,,,,,,,,,,,,d,1,0.788,2,7,27,8,1,,,,,,,,,,,,,,,,,,,,,,,,,,,,,,,,,,,,,,,,,,
486.002,,,,,,,,,2024-01-20_09h57.36.891,Mental Fatigue Training Session,2020.2.4,MacIntel,60,,,,,,,,,,,,,,,,,7,,,nonTarget,d,,,,,,,,,,,,,,,,,,d,1,0.746,2,8,28,6,1,,,,,,,,,,,,,,,,,,,,,,,,,,,,,,,,,,,,,,,,,,
488.969,,,,,,,,,2024-01-20_09h57.36.891,Mental Fatigue Training Session,2020.2.4,MacIntel,60,,,,,,,,,,,,,,,,,4,,,nonTarget,d,,,,,,,,,,,,,,,,,,d,1,0.662,2,9,29,3,1,,,,,,,,,,,,,,,,,,,,,,,,,,,,,,,,,,,,,,,,,,
491.854,,,,,,,,,2024-01-20_09h57.36.891,Mental Fatigue Training Session,2020.2.4,MacIntel,60,,,,,,,,,,,,,,,,,2,,,target,k,,,,,,,,,,,,,,,,,,d,0,0.828,3,0,30,1,1,,,,,,,,,,,,,,,,,,,,,,,,,,,,,,,,,,,,,,,,,,
494.905,,,,,,,,,2024-01-20_09h57.36.891,Mental Fatigue Training Session,2020.2.4,MacIntel,60,,,,,,,,,,,,,,,,,8,,,nonTarget,d,,,,,,,,,,,,,,,,,,d,1,0.78,3,1,31,7,1,,,,,,,,,,,,,,,,,,,,,,,,,,,,,,,,,,,,,,,,,,
497.901,,,,,,,,,2024-01-20_09h57.36.891,Mental Fatigue Training Session,2020.2.4,MacIntel,60,,,,,,,,,,,,,,,,,9,,,nonTarget,d,,,,,,,,,,,,,,,,,,d,1,0.791,3,2,32,8,1,,,,,,,,,,,,,,,,,,,,,,,,,,,,,,,,,,,,,,,,,,
500.921,,,,,,,,,2024-01-20_09h57.36.891,Mental Fatigue Training Session,2020.2.4,MacIntel,60,,,,,,,,,,,,,,,,,6,,,nonTarget,d,,,,,,,,,,,,,,,,,,d,1,1.022,3,3,33,5,1,,,,,,,,,,,,,,,,,,,,,,,,,,,,,,,,,,,,,,,,,,
504.176,,,,,,,,,2024-01-20_09h57.36.891,Mental Fatigue Training Session,2020.2.4,MacIntel,60,,,,,,,,,,,,,,,,,10,,,nonTarget,d,,,,,,,,,,,,,,,,,,d,1,0.967,3,4,34,9,1,,,,,,,,,,,,,,,,,,,,,,,,,,,,,,,,,,,,,,,,,,
507.359,,,,,,,,,2024-01-20_09h57.36.891,Mental Fatigue Training Session,2020.2.4,MacIntel,60,,,,,,,,,,,,,,,,,1,,,target,k,,,,,,,,,,,,,,,,,,k,1,0.782,3,5,35,0,1,,,,,,,,,,,,,,,,,,,,,,,,,,,,,,,,,,,,,,,,,,
510.36,,,,,,,,,2024-01-20_09h57.36.891,Mental Fatigue Training Session,2020.2.4,MacIntel,60,,,,,,,,,,,,,,,,,7,,,nonTarget,d,,,,,,,,,,,,,,,,,,d,1,1.011,3,6,36,6,1,,,,,,,,,,,,,,,,,,,,,,,,,,,,,,,,,,,,,,,,,,
513.594,,,,,,,,,2024-01-20_09h57.36.891,Mental Fatigue Training Session,2020.2.4,MacIntel,60,,,,,,,,,,,,,,,,,5,,,nonTarget,d,,,,,,,,,,,,,,,,,,d,1,0.791,3,7,37,4,1,,,,,,,,,,,,,,,,,,,,,,,,,,,,,,,,,,,,,,,,,,
516.607,,,,,,,,,2024-01-20_09h57.36.891,Mental Fatigue Training Session,2020.2.4,MacIntel,60,,,,,,,,,,,,,,,,,3,,,target,k,,,,,,,,,,,,,,,,,,k,1,0.84,3,8,38,2,1,,,,,,,,,,,,,,,,,,,,,,,,,,,,,,,,,,,,,,,,,,
519.673,,,,,,,,,2024-01-20_09h57.36.891,Mental Fatigue Training Session,2020.2.4,MacIntel,60,,,,,,,,,,,,,,,,,4,,,nonTarget,d,,,,,,,,,,,,,,,,,,d,1,1.111,3,9,39,3,1,,,,,,,,,,,,,,,,,,,,,,,,,,,,,,,,,,,,,,,,,,
523.019,,,,,,,,,2024-01-20_09h57.36.891,Mental Fatigue Training Session,2020.2.4,MacIntel,60,,,,,,,,,,,,,,,,,8,,,nonTarget,d,,,,,,,,,,,,,,,,,,d,1,0.715,4,0,40,7,1,,,,,,,,,,,,,,,,,,,,,,,,,,,,,,,,,,,,,,,,,,
525.962,,,,,,,,,2024-01-20_09h57.36.891,Mental Fatigue Training Session,2020.2.4,MacIntel,60,,,,,,,,,,,,,,,,,5,,,nonTarget,d,,,,,,,,,,,,,,,,,,d,1,0.694,4,1,41,4,1,,,,,,,,,,,,,,,,,,,,,,,,,,,,,,,,,,,,,,,,,,
528.884,,,,,,,,,2024-01-20_09h57.36.891,Mental Fatigue Training Session,2020.2.4,MacIntel,60,,,,,,,,,,,,,,,,,10,,,nonTarget,d,,,,,,,,,,,,,,,,,,d,1,1.479,4,2,42,9,1,,,,,,,,,,,,,,,,,,,,,,,,,,,,,,,,,,,,,,,,,,
532.585,,,,,,,,,2024-01-20_09h57.36.891,Mental Fatigue Training Session,2020.2.4,MacIntel,60,,,,,,,,,,,,,,,,,4,,,nonTarget,d,,,,,,,,,,,,,,,,,,d,1,1.28,4,3,43,3,1,,,,,,,,,,,,,,,,,,,,,,,,,,,,,,,,,,,,,,,,,,
536.087,,,,,,,,,2024-01-20_09h57.36.891,Mental Fatigue Training Session,2020.2.4,MacIntel,60,,,,,,,,,,,,,,,,,9,,,nonTarget,d,,,,,,,,,,,,,,,,,,d,1,1.16,4,4,44,8,1,,,,,,,,,,,,,,,,,,,,,,,,,,,,,,,,,,,,,,,,,,
539.459,,,,,,,,,2024-01-20_09h57.36.891,Mental Fatigue Training Session,2020.2.4,MacIntel,60,,,,,,,,,,,,,,,,,3,,,target,k,,,,,,,,,,,,,,,,,,k,1,1.05,4,5,45,2,1,,,,,,,,,,,,,,,,,,,,,,,,,,,,,,,,,,,,,,,,,,
542.73,,,,,,,,,2024-01-20_09h57.36.891,Mental Fatigue Training Session,2020.2.4,MacIntel,60,,,,,,,,,,,,,,,,,2,,,target,k,,,,,,,,,,,,,,,,,,k,1,0.681,4,6,46,1,1,,,,,,,,,,,,,,,,,,,,,,,,,,,,,,,,,,,,,,,,,,
545.64,,,,,,,,,2024-01-20_09h57.36.891,Mental Fatigue Training Session,2020.2.4,MacIntel,60,,,,,,,,,,,,,,,,,1,,,target,k,,,,,,,,,,,,,,,,,,k,1,1.496,4,7,47,0,1,,,,,,,,,,,,,,,,,,,,,,,,,,,,,,,,,,,,,,,,,,
549.345,,,,,,,,,2024-01-20_09h57.36.891,Mental Fatigue Training Session,2020.2.4,MacIntel,60,,,,,,,,,,,,,,,,,7,,,nonTarget,d,,,,,,,,,,,,,,,,,,d,1,1.567,4,8,48,6,1,,,,,,,,,,,,,,,,,,,,,,,,,,,,,,,,,,,,,,,,,,
553.134,,,,,,,,,2024-01-20_09h57.36.891,Mental Fatigue Training Session,2020.2.4,MacIntel,60,,,,,,,,,,,,,,,,,6,,,nonTarget,d,,,,,,,,,,,,,,,,,,d,1,1.749,4,9,49,5,1,,,,,,,,,,,,,,,,,,,,,,,,,,,,,,,,,,,,,,,,,,
557.094,,,,,,,,,2024-01-20_09h57.36.891,Mental Fatigue Training Session,2020.2.4,MacIntel,60,,,,,,,,,,,,,,,,,5,,,nonTarget,d,,,,,,,,,,,,,,,,,,d,1,1.712,5,0,50,4,1,,,,,,,,,,,,,,,,,,,,,,,,,,,,,,,,,,,,,,,,,,
561.012,,,,,,,,,2024-01-20_09h57.36.891,Mental Fatigue Training Session,2020.2.4,MacIntel,60,,,,,,,,,,,,,,,,,4,,,nonTarget,d,,,,,,,,,,,,,,,,,,d,1,1.398,5,1,51,3,1,,,,,,,,,,,,,,,,,,,,,,,,,,,,,,,,,,,,,,,,,,
564.631,,,,,,,,,2024-01-20_09h57.36.891,Mental Fatigue Training Session,2020.2.4,MacIntel,60,,,,,,,,,,,,,,,,,3,,,target,k,,,,,,,,,,,,,,,,,,k,1,0.994,5,2,52,2,1,,,,,,,,,,,,,,,,,,,,,,,,,,,,,,,,,,,,,,,,,,
567.83,,,,,,,,,2024-01-20_09h57.36.891,Mental Fatigue Training Session,2020.2.4,MacIntel,60,,,,,,,,,,,,,,,,,1,,,target,k,,,,,,,,,,,,,,,,,,k,1,0.831,5,3,53,0,1,,,,,,,,,,,,,,,,,,,,,,,,,,,,,,,,,,,,,,,,,,
570.882,,,,,,,,,2024-01-20_09h57.36.891,Mental Fatigue Training Session,2020.2.4,MacIntel,60,,,,,,,,,,,,,,,,,7,,,nonTarget,d,,,,,,,,,,,,,,,,,,d,1,1.349,5,4,54,6,1,,,,,,,,,,,,,,,,,,,,,,,,,,,,,,,,,,,,,,,,,,
574.455,,,,,,,,,2024-01-20_09h57.36.891,Mental Fatigue Training Session,2020.2.4,MacIntel,60,,,,,,,,,,,,,,,,,2,,,target,k,,,,,,,,,,,,,,,,,,k,1,0.952,5,5,55,1,1,,,,,,,,,,,,,,,,,,,,,,,,,,,,,,,,,,,,,,,,,,
577.635,,,,,,,,,2024-01-20_09h57.36.891,Mental Fatigue Training Session,2020.2.4,MacIntel,60,,,,,,,,,,,,,,,,,10,,,nonTarget,d,,,,,,,,,,,,,,,,,,d,1,1.11,5,6,56,9,1,,,,,,,,,,,,,,,,,,,,,,,,,,,,,,,,,,,,,,,,,,
580.953,,,,,,,,,2024-01-20_09h57.36.891,Mental Fatigue Training Session,2020.2.4,MacIntel,60,,,,,,,,,,,,,,,,,9,,,nonTarget,d,,,,,,,,,,,,,,,,,,d,1,1.78,5,7,57,8,1,,,,,,,,,,,,,,,,,,,,,,,,,,,,,,,,,,,,,,,,,,
584.954,,,,,,,,,2024-01-20_09h57.36.891,Mental Fatigue Training Session,2020.2.4,MacIntel,60,,,,,,,,,,,,,,,,,8,,,nonTarget,d,,,,,,,,,,,,,,,,,,d,1,1.83,5,8,58,7,1,,,,,,,,,,,,,,,,,,,,,,,,,,,,,,,,,,,,,,,,,,
589.007,,,,,,,,,2024-01-20_09h57.36.891,Mental Fatigue Training Session,2020.2.4,MacIntel,60,,,,,,,,,,,,,,,,,6,,,nonTarget,d,,,,,,,,,,,,,,,,,,d,1,1.512,5,9,59,5,1,,,,,,,,,,,,,,,,,,,,,,,,,,,,,,,,,,,,,,,,,,
592.74,,,,,,,,,2024-01-20_09h57.36.891,Mental Fatigue Training Session,2020.2.4,MacIntel,60,,,,,,,,,,,,,,,,,10,,,nonTarget,d,,,,,,,,,,,,,,,,,,d,1,1.598,6,0,60,9,1,,,,,,,,,,,,,,,,,,,,,,,,,,,,,,,,,,,,,,,,,,
596.553,,,,,,,,,2024-01-20_09h57.36.891,Mental Fatigue Training Session,2020.2.4,MacIntel,60,,,,,,,,,,,,,,,,,1,,,target,k,,,,,,,,,,,,,,,,,,k,1,0.971,6,1,61,0,1,,,,,,,,,,,,,,,,,,,,,,,,,,,,,,,,,,,,,,,,,,
599.743,,,,,,,,,2024-01-20_09h57.36.891,Mental Fatigue Training Session,2020.2.4,MacIntel,60,,,,,,,,,,,,,,,,,7,,,nonTarget,d,,,,,,,,,,,,,,,,,,d,1,1.694,6,2,62,6,1,,,,,,,,,,,,,,,,,,,,,,,,,,,,,,,,,,,,,,,,,,
603.644,,,,,,,,,2024-01-20_09h57.36.891,Mental Fatigue Training Session,2020.2.4,MacIntel,60,,,,,,,,,,,,,,,,,3,,,target,k,,,,,,,,,,,,,,,,,,k,1,1.113,6,3,63,2,1,,,,,,,,,,,,,,,,,,,,,,,,,,,,,,,,,,,,,,,,,,
606.962,,,,,,,,,2024-01-20_09h57.36.891,Mental Fatigue Training Session,2020.2.4,MacIntel,60,,,,,,,,,,,,,,,,,8,,,nonTarget,d,,,,,,,,,,,,,,,,,,k,0,1.222,6,4,64,7,1,,,,,,,,,,,,,,,,,,,,,,,,,,,,,,,,,,,,,,,,,,
610.403,,,,,,,,,2024-01-20_09h57.36.891,Mental Fatigue Training Session,2020.2.4,MacIntel,60,,,,,,,,,,,,,,,,,9,,,nonTarget,d,,,,,,,,,,,,,,,,,,,0,,6,5,65,8,1,,,,,,,,,,,,,,,,,,,,,,,,,,,,,,,,,,,,,,,,,,
614.598,,,,,,,,,2024-01-20_09h57.36.891,Mental Fatigue Training Session,2020.2.4,MacIntel,60,,,,,,,,,,,,,,,,,2,,,target,k,,,,,,,,,,,,,,,,,,k,1,0.627,6,6,66,1,1,,,,,,,,,,,,,,,,,,,,,,,,,,,,,,,,,,,,,,,,,,
617.439,,,,,,,,,2024-01-20_09h57.36.891,Mental Fatigue Training Session,2020.2.4,MacIntel,60,,,,,,,,,,,,,,,,,4,,,nonTarget,d,,,,,,,,,,,,,,,,,,k,0,1.191,6,7,67,3,1,,,,,,,,,,,,,,,,,,,,,,,,,,,,,,,,,,,,,,,,,,
620.836,,,,,,,,,2024-01-20_09h57.36.891,Mental Fatigue Training Session,2020.2.4,MacIntel,60,,,,,,,,,,,,,,,,,5,,,nonTarget,d,,,,,,,,,,,,,,,,,,d,1,0.787,6,8,68,4,1,,,,,,,,,,,,,,,,,,,,,,,,,,,,,,,,,,,,,,,,,,
623.846,,,,,,,,,2024-01-20_09h57.36.891,Mental Fatigue Training Session,2020.2.4,MacIntel,60,,,,,,,,,,,,,,,,,6,,,nonTarget,d,,,,,,,,,,,,,,,,,,d,1,1.529,6,9,69,5,1,,,,,,,,,,,,,,,,,,,,,,,,,,,,,,,,,,,,,,,,,,
627.603,,,,,,,,,2024-01-20_09h57.36.891,Mental Fatigue Training Session,2020.2.4,MacIntel,60,,,,,,,,,,,,,,,,,3,,,target,k,,,,,,,,,,,,,,,,,,d,0,1.362,7,0,70,2,1,,,,,,,,,,,,,,,,,,,,,,,,,,,,,,,,,,,,,,,,,,
631.177,,,,,,,,,2024-01-20_09h57.36.891,Mental Fatigue Training Session,2020.2.4,MacIntel,60,,,,,,,,,,,,,,,,,10,,,nonTarget,d,,,,,,,,,,,,,,,,,,d,1,0.995,7,1,71,9,1,,,,,,,,,,,,,,,,,,,,,,,,,,,,,,,,,,,,,,,,,,
634.396,,,,,,,,,2024-01-20_09h57.36.891,Mental Fatigue Training Session,2020.2.4,MacIntel,60,,,,,,,,,,,,,,,,,8,,,nonTarget,d,,,,,,,,,,,,,,,,,,d,1,0.879,7,2,72,7,1,,,,,,,,,,,,,,,,,,,,,,,,,,,,,,,,,,,,,,,,,,
637.501,,,,,,,,,2024-01-20_09h57.36.891,Mental Fatigue Training Session,2020.2.4,MacIntel,60,,,,,,,,,,,,,,,,,9,,,nonTarget,d,,,,,,,,,,,,,,,,,,d,1,0.834,7,3,73,8,1,,,,,,,,,,,,,,,,,,,,,,,,,,,,,,,,,,,,,,,,,,
640.558,,,,,,,,,2024-01-20_09h57.36.891,Mental Fatigue Training Session,2020.2.4,MacIntel,60,,,,,,,,,,,,,,,,,6,,,nonTarget,d,,,,,,,,,,,,,,,,,,d,1,0.998,7,4,74,5,1,,,,,,,,,,,,,,,,,,,,,,,,,,,,,,,,,,,,,,,,,,
653.428,,,,,,,,,2024-01-20_09h57.36.891,Mental Fatigue Training Session,2020.2.4,MacIntel,60,,,,,,,,,,,,,,,,,,,,,,,,,,,,,,,,,,,,,,,,,,,,,,,4.501,right,4.468,right,6.303,0,0,0,0,1,,,,,,,,,,,,,,,,,,,,,,,,,,,,,,,,
669.485,,,,,,,,,2024-01-20_09h57.36.891,Mental Fatigue Training Session,2020.2.4,MacIntel,60,,,,,,,,,,,,,,,,,,,,,,,,,,,,,,,,,,,,,,,,,,,,,,,,,,right,16.019,1,0,1,0,1,,,,,,,,,,,,,,,,,,,,,,,,,,,,,,,,
674.088,,,,,,,,,2024-01-20_09h57.36.891,Mental Fatigue Training Session,2020.2.4,MacIntel,60,,,,,,,,,,,,,,,,,,,,,,,,,,,,,,,,,,,,,,,,,,,,,,,,,,k,4.568,2,0,2,0,1,,,,,,,,,,,,,,,,,,,,,,,,,,,,,,,,
675.304,,,,,,,,,2024-01-20_09h57.36.891,Mental Fatigue Training Session,2020.2.4,MacIntel,60,,,,,,,,,,,,,,,,,,,,,k,,,,,,,,,,,,,,,,,,,,,,,,,,,,,,,,,,,,k,1,1.332,0,0,0,0,1,target,T,,,,,,,,,,,,,,,,,,,,,,
678.891,,,,,,,,,2024-01-20_09h57.36.891,Mental Fatigue Training Session,2020.2.4,MacIntel,60,,,,,,,,,,,,,,,,,,,,,k,,,,,,,,,,,,,,,,,,,,,,,,,,,,,,,,,,,,k,1,2.083,0,1,1,2,1,target,T,,,,,,,,,,,,,,,,,,,,,,
683.223,,,,,,,,,2024-01-20_09h57.36.891,Mental Fatigue Training Session,2020.2.4,MacIntel,60,,,,,,,,,,,,,,,,,,,,,d,,,,,,,,,,,,,,,,,,,,,,,,,,,,,,,,,,,,d,1,1.577,0,2,2,7,1,nonTarget,L,,,,,,,,,,,,,,,,,,,,,,
687.036,,,,,,,,,2024-01-20_09h57.36.891,Mental Fatigue Training Session,2020.2.4,MacIntel,60,,,,,,,,,,,,,,,,,,,,,k,,,,,,,,,,,,,,,,,,,,,,,,,,,,,,,,,,,,k,1,0.877,0,3,3,8,1,target,T,,,,,,,,,,,,,,,,,,,,,,
690.147,,,,,,,,,2024-01-20_09h57.36.891,Mental Fatigue Training Session,2020.2.4,MacIntel,60,,,,,,,,,,,,,,,,,,,,,d,,,,,,,,,,,,,,,,,,,,,,,,,,,,,,,,,,,,d,1,1.888,0,4,4,3,1,nonTarget,L,,,,,,,,,,,,,,,,,,,,,,
694.268,,,,,,,,,2024-01-20_09h57.36.891,Mental Fatigue Training Session,2020.2.4,MacIntel,60,,,,,,,,,,,,,,,,,,,,,k,,,,,,,,,,,,,,,,,,,,,,,,,,,,,,,,,,,,k,1,1.236,0,5,5,4,1,target,T,,,,,,,,,,,,,,,,,,,,,,
697.728,,,,,,,,,2024-01-20_09h57.36.891,Mental Fatigue Training Session,2020.2.4,MacIntel,60,,,,,,,,,,,,,,,,,,,,,d,,,,,,,,,,,,,,,,,,,,,,,,,,,,,,,,,,,,d,1,1.275,0,6,6,1,1,nonTarget,L,,,,,,,,,,,,,,,,,,,,,,
701.237,,,,,,,,,2024-01-20_09h57.36.891,Mental Fatigue Training Session,2020.2.4,MacIntel,60,,,,,,,,,,,,,,,,,,,,,k,,,,,,,,,,,,,,,,,,,,,,,,,,,,,,,,,,,,k,1,1.222,0,7,7,6,1,target,T,,,,,,,,,,,,,,,,,,,,,,
704.697,,,,,,,,,2024-01-20_09h57.36.891,Mental Fatigue Training Session,2020.2.4,MacIntel,60,,,,,,,,,,,,,,,,,,,,,d,,,,,,,,,,,,,,,,,,,,,,,,,,,,,,,,,,,,d,1,1.334,0,8,8,5,1,nonTarget,L,,,,,,,,,,,,,,,,,,,,,,
708.259,,,,,,,,,2024-01-20_09h57.36.891,Mental Fatigue Training Session,2020.2.4,MacIntel,60,,,,,,,,,,,,,,,,,,,,,d,,,,,,,,,,,,,,,,,,,,,,,,,,,,,,,,,,,,d,1,1.634,0,9,9,9,1,nonTarget,L,,,,,,,,,,,,,,,,,,,,,,
712.131,,,,,,,,,2024-01-20_09h57.36.891,Mental Fatigue Training Session,2020.2.4,MacIntel,60,,,,,,,,,,,,,,,,,,,,,d,,,,,,,,,,,,,,,,,,,,,,,,,,,,,,,,,,,,d,1,1.773,1,0,10,7,1,nonTarget,L,,,,,,,,,,,,,,,,,,,,,,
716.151,,,,,,,,,2024-01-20_09h57.36.891,Mental Fatigue Training Session,2020.2.4,MacIntel,60,,,,,,,,,,,,,,,,,,,,,k,,,,,,,,,,,,,,,,,,,,,,,,,,,,,,,,,,,,k,1,0.726,1,1,11,2,1,target,T,,,,,,,,,,,,,,,,,,,,,,
719.12,,,,,,,,,2024-01-20_09h57.36.891,Mental Fatigue Training Session,2020.2.4,MacIntel,60,,,,,,,,,,,,,,,,,,,,,k,,,,,,,,,,,,,,,,,,,,,,,,,,,,,,,,,,,,d,0,1.369,1,2,12,0,1,target,T,,,,,,,,,,,,,,,,,,,,,,
722.729,,,,,,,,,2024-01-20_09h57.36.891,Mental Fatigue Training Session,2020.2.4,MacIntel,60,,,,,,,,,,,,,,,,,,,,,d,,,,,,,,,,,,,,,,,,,,,,,,,,,,,,,,,,,,d,1,1.475,1,3,13,5,1,nonTarget,L,,,,,,,,,,,,,,,,,,,,,,
726.455,,,,,,,,,2024-01-20_09h57.36.891,Mental Fatigue Training Session,2020.2.4,MacIntel,60,,,,,,,,,,,,,,,,,,,,,k,,,,,,,,,,,,,,,,,,,,,,,,,,,,,,,,,,,,k,1,0.839,1,4,14,4,1,target,T,,,,,,,,,,,,,,,,,,,,,,
729.524,,,,,,,,,2024-01-20_09h57.36.891,Mental Fatigue Training Session,2020.2.4,MacIntel,60,,,,,,,,,,,,,,,,,,,,,d,,,,,,,,,,,,,,,,,,,,,,,,,,,,,,,,,,,,d,1,1.804,1,5,15,3,1,nonTarget,L,,,,,,,,,,,,,,,,,,,,,,
733.557,,,,,,,,,2024-01-20_09h57.36.891,Mental Fatigue Training Session,2020.2.4,MacIntel,60,,,,,,,,,,,,,,,,,,,,,k,,,,,,,,,,,,,,,,,,,,,,,,,,,,,,,,,,,,k,1,0.77,1,6,16,8,1,target,T,,,,,,,,,,,,,,,,,,,,,,
736.559,,,,,,,,,2024-01-20_09h57.36.891,Mental Fatigue Training Session,2020.2.4,MacIntel,60,,,,,,,,,,,,,,,,,,,,,d,,,,,,,,,,,,,,,,,,,,,,,,,,,,,,,,,,,,k,0,0.785,1,7,17,9,1,nonTarget,L,,,,,,,,,,,,,,,,,,,,,,
739.594,,,,,,,,,2024-01-20_09h57.36.891,Mental Fatigue Training Session,2020.2.4,MacIntel,60,,,,,,,,,,,,,,,,,,,,,d,,,,,,,,,,,,,,,,,,,,,,,,,,,,,,,,,,,,d,1,2.099,1,8,18,1,1,nonTarget,L,,,,,,,,,,,,,,,,,,,,,,
743.929,,,,,,,,,2024-01-20_09h57.36.891,Mental Fatigue Training Session,2020.2.4,MacIntel,60,,,,,,,,,,,,,,,,,,,,,k,,,,,,,,,,,,,,,,,,,,,,,,,,,,,,,,,,,,k,1,0.756,1,9,19,6,1,target,T,,,,,,,,,,,,,,,,,,,,,,
746.922,,,,,,,,,2024-01-20_09h57.36.891,Mental Fatigue Training Session,2020.2.4,MacIntel,60,,,,,,,,,,,,,,,,,,,,,d,,,,,,,,,,,,,,,,,,,,,,,,,,,,,,,,,,,,d,1,1.681,2,0,20,7,1,nonTarget,L,,,,,,,,,,,,,,,,,,,,,,
750.838,,,,,,,,,2024-01-20_09h57.36.891,Mental Fatigue Training Session,2020.2.4,MacIntel,60,,,,,,,,,,,,,,,,,,,,,k,,,,,,,,,,,,,,,,,,,,,,,,,,,,,,,,,,,,k,1,1.521,2,1,21,8,1,target,T,,,,,,,,,,,,,,,,,,,,,,
754.575,,,,,,,,,2024-01-20_09h57.36.891,Mental Fatigue Training Session,2020.2.4,MacIntel,60,,,,,,,,,,,,,,,,,,,,,k,,,,,,,,,,,,,,,,,,,,,,,,,,,,,,,,,,,,k,1,0.71,2,2,22,6,1,target,T,,,,,,,,,,,,,,,,,,,,,,
757.533,,,,,,,,,2024-01-20_09h57.36.891,Mental Fatigue Training Session,2020.2.4,MacIntel,60,,,,,,,,,,,,,,,,,,,,,d,,,,,,,,,,,,,,,,,,,,,,,,,,,,,,,,,,,,d,1,1.529,2,3,23,9,1,nonTarget,L,,,,,,,,,,,,,,,,,,,,,,
761.301,,,,,,,,,2024-01-20_09h57.36.891,Mental Fatigue Training Session,2020.2.4,MacIntel,60,,,,,,,,,,,,,,,,,,,,,k,,,,,,,,,,,,,,,,,,,,,,,,,,,,,,,,,,,,k,1,0.663,2,4,24,4,1,target,T,,,,,,,,,,,,,,,,,,,,,,
764.202,,,,,,,,,2024-01-20_09h57.36.891,Mental Fatigue Training Session,2020.2.4,MacIntel,60,,,,,,,,,,,,,,,,,,,,,k,,,,,,,,,,,,,,,,,,,,,,,,,,,,,,,,,,,,k,1,2.929,2,5,25,2,1,target,T,,,,,,,,,,,,,,,,,,,,,,
769.355,,,,,,,,,2024-01-20_09h57.36.891,Mental Fatigue Training Session,2020.2.4,MacIntel,60,,,,,,,,,,,,,,,,,,,,,d,,,,,,,,,,,,,,,,,,,,,,,,,,,,,,,,,,,,d,1,1.711,2,6,26,3,1,nonTarget,L,,,,,,,,,,,,,,,,,,,,,,
773.305,,,,,,,,,2024-01-20_09h57.36.891,Mental Fatigue Training Session,2020.2.4,MacIntel,60,,,,,,,,,,,,,,,,,,,,,k,,,,,,,,,,,,,,,,,,,,,,,,,,,,,,,,,,,,k,1,0.685,2,7,27,0,1,target,T,,,,,,,,,,,,,,,,,,,,,,
776.223,,,,,,,,,2024-01-20_09h57.36.891,Mental Fatigue Training Session,2020.2.4,MacIntel,60,,,,,,,,,,,,,,,,,,,,,d,,,,,,,,,,,,,,,,,,,,,,,,,,,,,,,,,,,,d,1,1.914,2,8,28,5,1,nonTarget,L,,,,,,,,,,,,,,,,,,,,,,
780.375,,,,,,,,,2024-01-20_09h57.36.891,Mental Fatigue Training Session,2020.2.4,MacIntel,60,,,,,,,,,,,,,,,,,,,,,d,,,,,,,,,,,,,,,,,,,,,,,,,,,,,,,,,,,,d,1,1.995,2,9,29,1,1,nonTarget,L,,,,,,,,,,,,,,,,,,,,,,
784.598,,,,,,,,,2024-01-20_09h57.36.891,Mental Fatigue Training Session,2020.2.4,MacIntel,60,,,,,,,,,,,,,,,,,,,,,d,,,,,,,,,,,,,,,,,,,,,,,,,,,,,,,,,,,,d,1,1.805,3,0,30,1,1,nonTarget,L,,,,,,,,,,,,,,,,,,,,,,
788.627,,,,,,,,,2024-01-20_09h57.36.891,Mental Fatigue Training Session,2020.2.4,MacIntel,60,,,,,,,,,,,,,,,,,,,,,d,,,,,,,,,,,,,,,,,,,,,,,,,,,,,,,,,,,,d,1,2.069,3,1,31,3,1,nonTarget,L,,,,,,,,,,,,,,,,,,,,,,
792.936,,,,,,,,,2024-01-20_09h57.36.891,Mental Fatigue Training Session,2020.2.4,MacIntel,60,,,,,,,,,,,,,,,,,,,,,d,,,,,,,,,,,,,,,,,,,,,,,,,,,,,,,,,,,,d,1,2.887,3,2,32,7,1,nonTarget,L,,,,,,,,,,,,,,,,,,,,,,
798.064,,,,,,,,,2024-01-20_09h57.36.891,Mental Fatigue Training Session,2020.2.4,MacIntel,60,,,,,,,,,,,,,,,,,,,,,k,,,,,,,,,,,,,,,,,,,,,,,,,,,,,,,,,,,,k,1,1.362,3,3,33,4,1,target,T,,,,,,,,,,,,,,,,,,,,,,
801.665,,,,,,,,,2024-01-20_09h57.36.891,Mental Fatigue Training Session,2020.2.4,MacIntel,60,,,,,,,,,,,,,,,,,,,,,k,,,,,,,,,,,,,,,,,,,,,,,,,,,,,,,,,,,,k,1,0.732,3,4,34,8,1,target,T,,,,,,,,,,,,,,,,,,,,,,
804.635,,,,,,,,,2024-01-20_09h57.36.891,Mental Fatigue Training Session,2020.2.4,MacIntel,60,,,,,,,,,,,,,,,,,,,,,d,,,,,,,,,,,,,,,,,,,,,,,,,,,,,,,,,,,,d,1,1.631,3,5,35,9,1,nonTarget,L,,,,,,,,,,,,,,,,,,,,,,
808.501,,,,,,,,,2024-01-20_09h57.36.891,Mental Fatigue Training Session,2020.2.4,MacIntel,60,,,,,,,,,,,,,,,,,,,,,k,,,,,,,,,,,,,,,,,,,,,,,,,,,,,,,,,,,,k,1,1.175,3,6,36,6,1,target,T,,,,,,,,,,,,,,,,,,,,,,
811.906,,,,,,,,,2024-01-20_09h57.36.891,Mental Fatigue Training Session,2020.2.4,MacIntel,60,,,,,,,,,,,,,,,,,,,,,d,,,,,,,,,,,,,,,,,,,,,,,,,,,,,,,,,,,,d,1,1.46,3,7,37,5,1,nonTarget,L,,,,,,,,,,,,,,,,,,,,,,
815.601,,,,,,,,,2024-01-20_09h57.36.891,Mental Fatigue Training Session,2020.2.4,MacIntel,60,,,,,,,,,,,,,,,,,,,,,k,,,,,,,,,,,,,,,,,,,,,,,,,,,,,,,,,,,,k,1,0.64,3,8,38,2,1,target,T,,,,,,,,,,,,,,,,,,,,,,
818.488,,,,,,,,,2024-01-20_09h57.36.891,Mental Fatigue Training Session,2020.2.4,MacIntel,60,,,,,,,,,,,,,,,,,,,,,k,,,,,,,,,,,,,,,,,,,,,,,,,,,,,,,,,,,,k,1,1.239,3,9,39,0,1,target,T,,,,,,,,,,,,,,,,,,,,,,
821.986,,,,,,,,,2024-01-20_09h57.36.891,Mental Fatigue Training Session,2020.2.4,MacIntel,60,,,,,,,,,,,,,,,,,,,,,d,,,,,,,,,,,,,,,,,,,,,,,,,,,,,,,,,,,,d,1,1.916,4,0,40,9,1,nonTarget,L,,,,,,,,,,,,,,,,,,,,,,
826.142,,,,,,,,,2024-01-20_09h57.36.891,Mental Fatigue Training Session,2020.2.4,MacIntel,60,,,,,,,,,,,,,,,,,,,,,d,,,,,,,,,,,,,,,,,,,,,,,,,,,,,,,,,,,,d,1,2.58,4,1,41,5,1,nonTarget,L,,,,,,,,,,,,,,,,,,,,,,
830.954,,,,,,,,,2024-01-20_09h57.36.891,Mental Fatigue Training Session,2020.2.4,MacIntel,60,,,,,,,,,,,,,,,,,,,,,k,,,,,,,,,,,,,,,,,,,,,,,,,,,,,,,,,,,,k,1,1.17,4,2,42,4,1,target,T,,,,,,,,,,,,,,,,,,,,,,
834.355,,,,,,,,,2024-01-20_09h57.36.891,Mental Fatigue Training Session,2020.2.4,MacIntel,60,,,,,,,,,,,,,,,,,,,,,k,,,,,,,,,,,,,,,,,,,,,,,,,,,,,,,,,,,,k,1,0.648,4,3,43,2,1,target,T,,,,,,,,,,,,,,,,,,,,,,
837.239,,,,,,,,,2024-01-20_09h57.36.891,Mental Fatigue Training Session,2020.2.4,MacIntel,60,,,,,,,,,,,,,,,,,,,,,d,,,,,,,,,,,,,,,,,,,,,,,,,,,,,,,,,,,,d,1,1.592,4,4,44,7,1,nonTarget,L,,,,,,,,,,,,,,,,,,,,,,
841.084,,,,,,,,,2024-01-20_09h57.36.891,Mental Fatigue Training Session,2020.2.4,MacIntel,60,,,,,,,,,,,,,,,,,,,,,k,,,,,,,,,,,,,,,,,,,,,,,,,,,,,,,,,,,,k,1,1.02,4,5,45,8,1,target,T,,,,,,,,,,,,,,,,,,,,,,
844.346,,,,,,,,,2024-01-20_09h57.36.891,Mental Fatigue Training Session,2020.2.4,MacIntel,60,,,,,,,,,,,,,,,,,,,,,k,,,,,,,,,,,,,,,,,,,,,,,,,,,,,,,,,,,,k,1,0.616,4,6,46,0,1,target,T,,,,,,,,,,,,,,,,,,,,,,
847.216,,,,,,,,,2024-01-20_09h57.36.891,Mental Fatigue Training Session,2020.2.4,MacIntel,60,,,,,,,,,,,,,,,,,,,,,d,,,,,,,,,,,,,,,,,,,,,,,,,,,,,,,,,,,,d,1,1.272,4,7,47,3,1,nonTarget,L,,,,,,,,,,,,,,,,,,,,,,
850.722,,,,,,,,,2024-01-20_09h57.36.891,Mental Fatigue Training Session,2020.2.4,MacIntel,60,,,,,,,,,,,,,,,,,,,,,d,,,,,,,,,,,,,,,,,,,,,,,,,,,,,,,,,,,,d,1,2.963,4,8,48,1,1,nonTarget,L,,,,,,,,,,,,,,,,,,,,,,
855.929,,,,,,,,,2024-01-20_09h57.36.891,Mental Fatigue Training Session,2020.2.4,MacIntel,60,,,,,,,,,,,,,,,,,,,,,k,,,,,,,,,,,,,,,,,,,,,,,,,,,,,,,,,,,,k,1,0.592,4,9,49,6,1,target,T,,,,,,,,,,,,,,,,,,,,,,
858.769,,,,,,,,,2024-01-20_09h57.36.891,Mental Fatigue Training Session,2020.2.4,MacIntel,60,,,,,,,,,,,,,,,,,,,,,k,,,,,,,,,,,,,,,,,,,,,,,,,,,,,,,,,,,,k,1,0.56,5,0,50,6,1,target,T,,,,,,,,,,,,,,,,,,,,,,
861.571,,,,,,,,,2024-01-20_09h57.36.891,Mental Fatigue Training Session,2020.2.4,MacIntel,60,,,,,,,,,,,,,,,,,,,,,d,,,,,,,,,,,,,,,,,,,,,,,,,,,,,,,,,,,,d,1,1.501,5,1,51,3,1,nonTarget,L,,,,,,,,,,,,,,,,,,,,,,
865.303,,,,,,,,,2024-01-20_09h57.36.891,Mental Fatigue Training Session,2020.2.4,MacIntel,60,,,,,,,,,,,,,,,,,,,,,k,,,,,,,,,,,,,,,,,,,,,,,,,,,,,,,,,,,,k,1,1.269,5,2,52,2,1,target,T,,,,,,,,,,,,,,,,,,,,,,
868.806,,,,,,,,,2024-01-20_09h57.36.891,Mental Fatigue Training Session,2020.2.4,MacIntel,60,,,,,,,,,,,,,,,,,,,,,k,,,,,,,,,,,,,,,,,,,,,,,,,,,,,,,,,,,,k,1,0.74,5,3,53,8,1,target,T,,,,,,,,,,,,,,,,,,,,,,
871.774,,,,,,,,,2024-01-20_09h57.36.891,Mental Fatigue Training Session,2020.2.4,MacIntel,60,,,,,,,,,,,,,,,,,,,,,d,,,,,,,,,,,,,,,,,,,,,,,,,,,,,,,,,,,,d,1,1.525,5,4,54,7,1,nonTarget,L,,,,,,,,,,,,,,,,,,,,,,
875.526,,,,,,,,,2024-01-20_09h57.36.891,Mental Fatigue Training Session,2020.2.4,MacIntel,60,,,,,,,,,,,,,,,,,,,,,k,,,,,,,,,,,,,,,,,,,,,,,,,,,,,,,,,,,,k,1,0.657,5,5,55,0,1,target,T,,,,,,,,,,,,,,,,,,,,,,
878.417,,,,,,,,,2024-01-20_09h57.36.891,Mental Fatigue Training Session,2020.2.4,MacIntel,60,,,,,,,,,,,,,,,,,,,,,d,,,,,,,,,,,,,,,,,,,,,,,,,,,,,,,,,,,,d,1,1.791,5,6,56,1,1,nonTarget,L,,,,,,,,,,,,,,,,,,,,,,
882.462,,,,,,,,,2024-01-20_09h57.36.891,Mental Fatigue Training Session,2020.2.4,MacIntel,60,,,,,,,,,,,,,,,,,,,,,d,,,,,,,,,,,,,,,,,,,,,,,,,,,,,,,,,,,,d,1,2.852,5,7,57,9,1,nonTarget,L,,,,,,,,,,,,,,,,,,,,,,
887.543,,,,,,,,,2024-01-20_09h57.36.891,Mental Fatigue Training Session,2020.2.4,MacIntel,60,,,,,,,,,,,,,,,,,,,,,k,,,,,,,,,,,,,,,,,,,,,,,,,,,,,,,,,,,,k,1,0.591,5,8,58,4,1,target,T,,,,,,,,,,,,,,,,,,,,,,
890.382,,,,,,,,,2024-01-20_09h57.36.891,Mental Fatigue Training Session,2020.2.4,MacIntel,60,,,,,,,,,,,,,,,,,,,,,d,,,,,,,,,,,,,,,,,,,,,,,,,,,,,,,,,,,,d,1,1.994,5,9,59,5,1,nonTarget,L,,,,,,,,,,,,,,,,,,,,,,
894.613,,,,,,,,,2024-01-20_09h57.36.891,Mental Fatigue Training Session,2020.2.4,MacIntel,60,,,,,,,,,,,,,,,,,,,,,d,,,,,,,,,,,,,,,,,,,,,,,,,,,,,,,,,,,,d,1,2.065,6,0,60,1,1,nonTarget,L,,,,,,,,,,,,,,,,,,,,,,
898.917,,,,,,,,,2024-01-20_09h57.36.891,Mental Fatigue Training Session,2020.2.4,MacIntel,60,,,,,,,,,,,,,,,,,,,,,d,,,,,,,,,,,,,,,,,,,,,,,,,,,,,,,,,,,,d,1,2.172,6,1,61,5,1,nonTarget,L,,,,,,,,,,,,,,,,,,,,,,
903.335,,,,,,,,,2024-01-20_09h57.36.891,Mental Fatigue Training Session,2020.2.4,MacIntel,60,,,,,,,,,,,,,,,,,,,,,d,,,,,,,,,,,,,,,,,,,,,,,,,,,,,,,,,,,,d,1,1.757,6,2,62,9,1,nonTarget,L,,,,,,,,,,,,,,,,,,,,,,
907.304,,,,,,,,,2024-01-20_09h57.36.891,Mental Fatigue Training Session,2020.2.4,MacIntel,60,,,,,,,,,,,,,,,,,,,,,d,,,,,,,,,,,,,,,,,,,,,,,,,,,,,,,,,,,,k,0,0.675,6,3,63,7,1,nonTarget,L,,,,,,,,,,,,,,,,,,,,,,
910.223,,,,,,,,,2024-01-20_09h57.36.891,Mental Fatigue Training Session,2020.2.4,MacIntel,60,,,,,,,,,,,,,,,,,,,,,k,,,,,,,,,,,,,,,,,,,,,,,,,,,,,,,,,,,,k,1,1.281,6,4,64,6,1,target,T,,,,,,,,,,,,,,,,,,,,,,
913.739,,,,,,,,,2024-01-20_09h57.36.891,Mental Fatigue Training Session,2020.2.4,MacIntel,60,,,,,,,,,,,,,,,,,,,,,d,,,,,,,,,,,,,,,,,,,,,,,,,,,,,,,,,,,,d,1,1.475,6,5,65,3,1,nonTarget,L,,,,,,,,,,,,,,,,,,,,,,
917.444,,,,,,,,,2024-01-20_09h57.36.891,Mental Fatigue Training Session,2020.2.4,MacIntel,60,,,,,,,,,,,,,,,,,,,,,k,,,,,,,,,,,,,,,,,,,,,,,,,,,,,,,,,,,,k,1,1.086,6,6,66,4,1,target,T,,,,,,,,,,,,,,,,,,,,,,
920.768,,,,,,,,,2024-01-20_09h57.36.891,Mental Fatigue Training Session,2020.2.4,MacIntel,60,,,,,,,,,,,,,,,,,,,,,k,,,,,,,,,,,,,,,,,,,,,,,,,,,,,,,,,,,,k,1,1.167,6,7,67,0,1,target,T,,,,,,,,,,,,,,,,,,,,,,
924.169,,,,,,,,,2024-01-20_09h57.36.891,Mental Fatigue Training Session,2020.2.4,MacIntel,60,,,,,,,,,,,,,,,,,,,,,k,,,,,,,,,,,,,,,,,,,,,,,,,,,,,,,,,,,,k,1,1.804,6,8,68,2,1,target,T,,,,,,,,,,,,,,,,,,,,,,
928.228,,,,,,,,,2024-01-20_09h57.36.891,Mental Fatigue Training Session,2020.2.4,MacIntel,60,,,,,,,,,,,,,,,,,,,,,k,,,,,,,,,,,,,,,,,,,,,,,,,,,,,,,,,,,,k,1,0.69,6,9,69,8,1,target,T,,,,,,,,,,,,,,,,,,,,,,
931.163,,,,,,,,,2024-01-20_09h57.36.891,Mental Fatigue Training Session,2020.2.4,MacIntel,60,,,,,,,,,,,,,,,,,,,,,d,,,,,,,,,,,,,,,,,,,,,,,,,,,,,,,,,,,,d,1,2.479,7,0,70,5,1,nonTarget,L,,,,,,,,,,,,,,,,,,,,,,
935.882,,,,,,,,,2024-01-20_09h57.36.891,Mental Fatigue Training Session,2020.2.4,MacIntel,60,,,,,,,,,,,,,,,,,,,,,k,,,,,,,,,,,,,,,,,,,,,,,,,,,,,,,,,,,,k,1,1.756,7,1,71,6,1,target,T,,,,,,,,,,,,,,,,,,,,,,
939.866,,,,,,,,,2024-01-20_09h57.36.891,Mental Fatigue Training Session,2020.2.4,MacIntel,60,,,,,,,,,,,,,,,,,,,,,k,,,,,,,,,,,,,,,,,,,,,,,,,,,,,,,,,,,,k,1,1.145,7,2,72,2,1,target,T,,,,,,,,,,,,,,,,,,,,,,
943.251,,,,,,,,,2024-01-20_09h57.36.891,Mental Fatigue Training Session,2020.2.4,MacIntel,60,,,,,,,,,,,,,,,,,,,,,d,,,,,,,,,,,,,,,,,,,,,,,,,,,,,,,,,,,,d,1,1.85,7,3,73,1,1,nonTarget,L,,,,,,,,,,,,,,,,,,,,,,
947.335,,,,,,,,,2024-01-20_09h57.36.891,Mental Fatigue Training Session,2020.2.4,MacIntel,60,,,,,,,,,,,,,,,,,,,,,d,,,,,,,,,,,,,,,,,,,,,,,,,,,,,,,,,,,,d,1,2.741,7,4,74,9,1,nonTarget,L,,,,,,,,,,,,,,,,,,,,,,
952.325,,,,,,,,,2024-01-20_09h57.36.891,Mental Fatigue Training Session,2020.2.4,MacIntel,60,,,,,,,,,,,,,,,,,,,,,k,,,,,,,,,,,,,,,,,,,,,,,,,,,,,,,,,,,,k,1,0.616,7,5,75,4,1,target,T,,,,,,,,,,,,,,,,,,,,,,
955.188,,,,,,,,,2024-01-20_09h57.36.891,Mental Fatigue Training Session,2020.2.4,MacIntel,60,,,,,,,,,,,,,,,,,,,,,d,,,,,,,,,,,,,,,,,,,,,,,,,,,,,,,,,,,,d,1,2.041,7,6,76,3,1,nonTarget,L,,,,,,,,,,,,,,,,,,,,,,
959.474,,,,,,,,,2024-01-20_09h57.36.891,Mental Fatigue Training Session,2020.2.4,MacIntel,60,,,,,,,,,,,,,,,,,,,,,d,,,,,,,,,,,,,,,,,,,,,,,,,,,,,,,,,,,,d,1,1.108,7,7,77,7,1,nonTarget,L,,,,,,,,,,,,,,,,,,,,,,
962.824,,,,,,,,,2024-01-20_09h57.36.891,Mental Fatigue Training Session,2020.2.4,MacIntel,60,,,,,,,,,,,,,,,,,,,,,k,,,,,,,,,,,,,,,,,,,,,,,,,,,,,,,,,,,,k,1,1.242,7,8,78,8,1,target,T,,,,,,,,,,,,,,,,,,,,,,
966.296,,,,,,,,,2024-01-20_09h57.36.891,Mental Fatigue Training Session,2020.2.4,MacIntel,60,,,,,,,,,,,,,,,,,,,,,k,,,,,,,,,,,,,,,,,,,,,,,,,,,,,,,,,,,,k,1,0.66,7,9,79,0,1,target,T,,,,,,,,,,,,,,,,,,,,,,
969.181,,,,,,,,,2024-01-20_09h57.36.891,Mental Fatigue Training Session,2020.2.4,MacIntel,60,,,,,,,,,,,,,,,,,,,,,d,,,,,,,,,,,,,,,,,,,,,,,,,,,,,,,,,,,,d,1,0.928,8,0,80,1,1,nonTarget,L,,,,,,,,,,,,,,,,,,,,,,
972.352,,,,,,,,,2024-01-20_09h57.36.891,Mental Fatigue Training Session,2020.2.4,MacIntel,60,,,,,,,,,,,,,,,,,,,,,k,,,,,,,,,,,,,,,,,,,,,,,,,,,,,,,,,,,,k,1,0.681,8,1,81,8,1,target,T,,,,,,,,,,,,,,,,,,,,,,
975.284,,,,,,,,,2024-01-20_09h57.36.891,Mental Fatigue Training Session,2020.2.4,MacIntel,60,,,,,,,,,,,,,,,,,,,,,d,,,,,,,,,,,,,,,,,,,,,,,,,,,,,,,,,,,,d,1,2.497,8,2,82,3,1,nonTarget,L,,,,,,,,,,,,,,,,,,,,,,
989.839,,,,,,,,,2024-01-20_09h57.36.891,Mental Fatigue Training Session,2020.2.4,MacIntel,60,,,,,,,,,,,,,,,,,,,,,,,,,,,,,,,,,,,,,,,,,,,,,,,,,,,,,,,,,,,,,,,,,,,4.69,right,4.657,right,6.241,0,0,0,0,1,,,,,,,,,,,,
992.118,,,,,,,,,2024-01-20_09h57.36.891,Mental Fatigue Training Session,2020.2.4,MacIntel,60,,,,,,,,,,,,,,,,,,,,,,,,,,,,,,,,,,,,,,,,,,,,,,,,,,,,,,,,,,,,,,,,,,,,,,k,2.21,1,0,1,0,1,,,,,,,,,,,,
993.532,,,,,,,,,2024-01-20_09h57.36.891,Mental Fatigue Training Session,2020.2.4,MacIntel,60,,,,,,,,,,,,,,,,,,,,,d,,,,,,,,,,,,,,,,,,,,,,,,,,,,,,,,,,,,,,,,,,,,,,,,,,,,,,,,d,1,4.677,0,0,0,21,1,19_150_R.jpg,150,,
1000.433,,,,,,,,,2024-01-20_09h57.36.891,Mental Fatigue Training Session,2020.2.4,MacIntel,60,,,,,,,,,,,,,,,,,,,,,k,,,,,,,,,,,,,,,,,,,,,,,,,,,,,,,,,,,,,,,,,,,,,,,,,,,,,,,,k,1,2.601,0,1,1,40,1,25_0.jpg,0,,
1005.256,,,,,,,,,2024-01-20_09h57.36.891,Mental Fatigue Training Session,2020.2.4,MacIntel,60,,,,,,,,,,,,,,,,,,,,,d,,,,,,,,,,,,,,,,,,,,,,,,,,,,,,,,,,,,,,,,,,,,,,,,,,,,,,,,d,1,2.93,0,2,2,27,1,21_100_R.jpg,100,,
1010.409,,,,,,,,,2024-01-20_09h57.36.891,Mental Fatigue Training Session,2020.2.4,MacIntel,60,,,,,,,,,,,,,,,,,,,,,k,,,,,,,,,,,,,,,,,,,,,,,,,,,,,,,,,,,,,,,,,,,,,,,,,,,,,,,,k,1,2.057,0,3,3,32,1,23_0.jpg,0,,
1014.693,,,,,,,,,2024-01-20_09h57.36.891,Mental Fatigue Training Session,2020.2.4,MacIntel,60,,,,,,,,,,,,,,,,,,,,,k,,,,,,,,,,,,,,,,,,,,,,,,,,,,,,,,,,,,,,,,,,,,,,,,,,,,,,,,k,1,1.875,0,4,4,22,1,19_50.jpg,50,,
1018.794,,,,,,,,,2024-01-20_09h57.36.891,Mental Fatigue Training Session,2020.2.4,MacIntel,60,,,,,,,,,,,,,,,,,,,,,d,,,,,,,,,,,,,,,,,,,,,,,,,,,,,,,,,,,,,,,,,,,,,,,,,,,,,,,,d,1,1.842,0,5,5,57,1,30_0_R.jpg,0,,
1022.859,,,,,,,,,2024-01-20_09h57.36.891,Mental Fatigue Training Session,2020.2.4,MacIntel,60,,,,,,,,,,,,,,,,,,,,,k,,,,,,,,,,,,,,,,,,,,,,,,,,,,,,,,,,,,,,,,,,,,,,,,,,,,,,,,k,1,1.068,0,6,6,56,1,30_0.jpg,0,,
1026.139,,,,,,,,,2024-01-20_09h57.36.891,Mental Fatigue Training Session,2020.2.4,MacIntel,60,,,,,,,,,,,,,,,,,,,,,k,,,,,,,,,,,,,,,,,,,,,,,,,,,,,,,,,,,,,,,,,,,,,,,,,,,,,,,,k,1,3.25,0,7,7,86,1,43_50.jpg,50,,
1031.6,,,,,,,,,2024-01-20_09h57.36.891,Mental Fatigue Training Session,2020.2.4,MacIntel,60,,,,,,,,,,,,,,,,,,,,,d,,,,,,,,,,,,,,,,,,,,,,,,,,,,,,,,,,,,,,,,,,,,,,,,,,,,,,,,d,1,1.839,0,8,8,11,1,8_100_R.jpg,100,,
1035.668,,,,,,,,,2024-01-20_09h57.36.891,Mental Fatigue Training Session,2020.2.4,MacIntel,60,,,,,,,,,,,,,,,,,,,,,d,,,,,,,,,,,,,,,,,,,,,,,,,,,,,,,,,,,,,,,,,,,,,,,,,,,,,,,,d,1,2.141,0,9,9,23,1,19_50_R.jpg,50,,
1040.036,,,,,,,,,2024-01-20_09h57.36.891,Mental Fatigue Training Session,2020.2.4,MacIntel,60,,,,,,,,,,,,,,,,,,,,,d,,,,,,,,,,,,,,,,,,,,,,,,,,,,,,,,,,,,,,,,,,,,,,,,,,,,,,,,d,1,2.428,0,10,10,15,1,8_50_R.jpg,50,,
1044.687,,,,,,,,,2024-01-20_09h57.36.891,Mental Fatigue Training Session,2020.2.4,MacIntel,60,,,,,,,,,,,,,,,,,,,,,k,,,,,,,,,,,,,,,,,,,,,,,,,,,,,,,,,,,,,,,,,,,,,,,,,,,,,,,,k,1,1.562,0,11,11,30,1,21_50.jpg,50,,
1048.469,,,,,,,,,2024-01-20_09h57.36.891,Mental Fatigue Training Session,2020.2.4,MacIntel,60,,,,,,,,,,,,,,,,,,,,,d,,,,,,,,,,,,,,,,,,,,,,,,,,,,,,,,,,,,,,,,,,,,,,,,,,,,,,,,d,1,2.157,0,12,12,91,1,48_100_R.jpg,100,,
1052.856,,,,,,,,,2024-01-20_09h57.36.891,Mental Fatigue Training Session,2020.2.4,MacIntel,60,,,,,,,,,,,,,,,,,,,,,k,,,,,,,,,,,,,,,,,,,,,,,,,,,,,,,,,,,,,,,,,,,,,,,,,,,,,,,,k,1,1.8,0,13,13,94,1,48_50.jpg,50,,
1056.858,,,,,,,,,2024-01-20_09h57.36.891,Mental Fatigue Training Session,2020.2.4,MacIntel,60,,,,,,,,,,,,,,,,,,,,,k,,,,,,,,,,,,,,,,,,,,,,,,,,,,,,,,,,,,,,,,,,,,,,,,,,,,,,,,k,1,1.792,0,14,14,72,1,39_0.jpg,0,,
1060.86,,,,,,,,,2024-01-20_09h57.36.891,Mental Fatigue Training Session,2020.2.4,MacIntel,60,,,,,,,,,,,,,,,,,,,,,k,,,,,,,,,,,,,,,,,,,,,,,,,,,,,,,,,,,,,,,,,,,,,,,,,,,,,,,,k,1,1.41,0,15,15,88,1,48_0.jpg,0,,
1064.47,,,,,,,,,2024-01-20_09h57.36.891,Mental Fatigue Training Session,2020.2.4,MacIntel,60,,,,,,,,,,,,,,,,,,,,,d,,,,,,,,,,,,,,,,,,,,,,,,,,,,,,,,,,,,,,,,,,,,,,,,,,,,,,,,d,1,1.598,0,16,16,31,1,21_50_R.jpg,50,,
1068.278,,,,,,,,,2024-01-20_09h57.36.891,Mental Fatigue Training Session,2020.2.4,MacIntel,60,,,,,,,,,,,,,,,,,,,,,k,,,,,,,,,,,,,,,,,,,,,,,,,,,,,,,,,,,,,,,,,,,,,,,,,,,,,,,,k,1,2.196,0,17,17,2,1,1_100.jpg,100,,
1072.671,,,,,,,,,2024-01-20_09h57.36.891,Mental Fatigue Training Session,2020.2.4,MacIntel,60,,,,,,,,,,,,,,,,,,,,,d,,,,,,,,,,,,,,,,,,,,,,,,,,,,,,,,,,,,,,,,,,,,,,,,,,,,,,,,d,1,1.498,0,18,18,49,1,29_0_R.jpg,0,,
1076.399,,,,,,,,,2024-01-20_09h57.36.891,Mental Fatigue Training Session,2020.2.4,MacIntel,60,,,,,,,,,,,,,,,,,,,,,k,,,,,,,,,,,,,,,,,,,,,,,,,,,,,,,,,,,,,,,,,,,,,,,,,,,,,,,,k,1,1.859,0,19,19,10,1,8_100.jpg,100,,
1080.483,,,,,,,,,2024-01-20_09h57.36.891,Mental Fatigue Training Session,2020.2.4,MacIntel,60,,,,,,,,,,,,,,,,,,,,,k,,,,,,,,,,,,,,,,,,,,,,,,,,,,,,,,,,,,,,,,,,,,,,,,,,,,,,,,k,1,1.188,0,20,20,48,1,29_0.jpg,0,,
1083.884,,,,,,,,,2024-01-20_09h57.36.891,Mental Fatigue Training Session,2020.2.4,MacIntel,60,,,,,,,,,,,,,,,,,,,,,d,,,,,,,,,,,,,,,,,,,,,,,,,,,,,,,,,,,,,,,,,,,,,,,,,,,,,,,,d,1,2.112,0,21,21,35,1,23_100_R.jpg,100,,
1088.208,,,,,,,,,2024-01-20_09h57.36.891,Mental Fatigue Training Session,2020.2.4,MacIntel,60,,,,,,,,,,,,,,,,,,,,,k,,,,,,,,,,,,,,,,,,,,,,,,,,,,,,,,,,,,,,,,,,,,,,,,,,,,,,,,k,1,3.049,0,22,22,84,1,43_150.jpg,150,,
1093.479,,,,,,,,,2024-01-20_09h57.36.891,Mental Fatigue Training Session,2020.2.4,MacIntel,60,,,,,,,,,,,,,,,,,,,,,d,,,,,,,,,,,,,,,,,,,,,,,,,,,,,,,,,,,,,,,,,,,,,,,,,,,,,,,,k,0,3.023,0,23,23,43,1,25_100_R.jpg,100,,
1098.722,,,,,,,,,2024-01-20_09h57.36.891,Mental Fatigue Training Session,2020.2.4,MacIntel,60,,,,,,,,,,,,,,,,,,,,,d,,,,,,,,,,,,,,,,,,,,,,,,,,,,,,,,,,,,,,,,,,,,,,,,,,,,,,,,d,1,1.288,0,24,24,1,1,1_0_R.jpg,0,,
1102.224,,,,,,,,,2024-01-20_09h57.36.891,Mental Fatigue Training Session,2020.2.4,MacIntel,60,,,,,,,,,,,,,,,,,,,,,k,,,,,,,,,,,,,,,,,,,,,,,,,,,,,,,,,,,,,,,,,,,,,,,,,,,,,,,,k,1,0.978,0,25,25,8,1,8_0.jpg,0,,
1105.41,,,,,,,,,2024-01-20_09h57.36.891,Mental Fatigue Training Session,2020.2.4,MacIntel,60,,,,,,,,,,,,,,,,,,,,,k,,,,,,,,,,,,,,,,,,,,,,,,,,,,,,,,,,,,,,,,,,,,,,,,,,,,,,,,k,1,1.874,0,26,26,78,1,39_50.jpg,50,,
1109.5,,,,,,,,,2024-01-20_09h57.36.891,Mental Fatigue Training Session,2020.2.4,MacIntel,60,,,,,,,,,,,,,,,,,,,,,d,,,,,,,,,,,,,,,,,,,,,,,,,,,,,,,,,,,,,,,,,,,,,,,,,,,,,,,,d,1,2.312,0,27,27,41,1,25_0_R.jpg,0,,
1114.045,,,,,,,,,2024-01-20_09h57.36.891,Mental Fatigue Training Session,2020.2.4,MacIntel,60,,,,,,,,,,,,,,,,,,,,,d,,,,,,,,,,,,,,,,,,,,,,,,,,,,,,,,,,,,,,,,,,,,,,,,,,,,,,,,d,1,2.095,0,28,28,55,1,29_50_R.jpg,50,,
1118.346,,,,,,,,,2024-01-20_09h57.36.891,Mental Fatigue Training Session,2020.2.4,MacIntel,60,,,,,,,,,,,,,,,,,,,,,d,,,,,,,,,,,,,,,,,,,,,,,,,,,,,,,,,,,,,,,,,,,,,,,,,,,,,,,,d,1,2.743,0,29,29,83,1,43_100_R.jpg,100,,
1123.315,,,,,,,,,2024-01-20_09h57.36.891,Mental Fatigue Training Session,2020.2.4,MacIntel,60,,,,,,,,,,,,,,,,,,,,,d,,,,,,,,,,,,,,,,,,,,,,,,,,,,,,,,,,,,,,,,,,,,,,,,,,,,,,,,d,1,2.911,0,30,30,13,1,8_150_R.jpg,150,,
1128.45,,,,,,,,,2024-01-20_09h57.36.891,Mental Fatigue Training Session,2020.2.4,MacIntel,60,,,,,,,,,,,,,,,,,,,,,k,,,,,,,,,,,,,,,,,,,,,,,,,,,,,,,,,,,,,,,,,,,,,,,,,,,,,,,,k,1,2.592,0,31,31,20,1,19_150.jpg,150,,
1133.246,,,,,,,,,2024-01-20_09h57.36.891,Mental Fatigue Training Session,2020.2.4,MacIntel,60,,,,,,,,,,,,,,,,,,,,,k,,,,,,,,,,,,,,,,,,,,,,,,,,,,,,,,,,,,,,,,,,,,,,,,,,,,,,,,k,1,1.094,0,32,32,80,1,43_0.jpg,0,,
1136.561,,,,,,,,,2024-01-20_09h57.36.891,Mental Fatigue Training Session,2020.2.4,MacIntel,60,,,,,,,,,,,,,,,,,,,,,k,,,,,,,,,,,,,,,,,,,,,,,,,,,,,,,,,,,,,,,,,,,,,,,,,,,,,,,,k,1,1.025,0,33,33,24,1,21_0.jpg,0,,
1139.805,,,,,,,,,2024-01-20_09h57.36.891,Mental Fatigue Training Session,2020.2.4,MacIntel,60,,,,,,,,,,,,,,,,,,,,,k,,,,,,,,,,,,,,,,,,,,,,,,,,,,,,,,,,,,,,,,,,,,,,,,,,,,,,,,k,1,2.11,0,34,34,60,1,30_150.jpg,150,,
1144.135,,,,,,,,,2024-01-20_09h57.36.891,Mental Fatigue Training Session,2020.2.4,MacIntel,60,,,,,,,,,,,,,,,,,,,,,k,,,,,,,,,,,,,,,,,,,,,,,,,,,,,,,,,,,,,,,,,,,,,,,,,,,,,,,,k,1,1.742,0,35,35,50,1,29_100.jpg,100,,
1148.108,,,,,,,,,2024-01-20_09h57.36.891,Mental Fatigue Training Session,2020.2.4,MacIntel,60,,,,,,,,,,,,,,,,,,,,,d,,,,,,,,,,,,,,,,,,,,,,,,,,,,,,,,,,,,,,,,,,,,,,,,,,,,,,,,d,1,1.536,0,36,36,5,1,1_150_R.jpg,150,,
1151.876,,,,,,,,,2024-01-20_09h57.36.891,Mental Fatigue Training Session,2020.2.4,MacIntel,60,,,,,,,,,,,,,,,,,,,,,d,,,,,,,,,,,,,,,,,,,,,,,,,,,,,,,,,,,,,,,,,,,,,,,,,,,,,,,,d,1,1.523,0,37,37,63,1,30_50_R.jpg,50,,
1155.598,,,,,,,,,2024-01-20_09h57.36.891,Mental Fatigue Training Session,2020.2.4,MacIntel,60,,,,,,,,,,,,,,,,,,,,,d,,,,,,,,,,,,,,,,,,,,,,,,,,,,,,,,,,,,,,,,,,,,,,,,,,,,,,,,d,1,2.622,0,38,38,67,1,31_100_R.jpg,100,,
1160.429,,,,,,,,,2024-01-20_09h57.36.891,Mental Fatigue Training Session,2020.2.4,MacIntel,60,,,,,,,,,,,,,,,,,,,,,d,,,,,,,,,,,,,,,,,,,,,,,,,,,,,,,,,,,,,,,,,,,,,,,,,,,,,,,,d,1,2.375,0,39,39,71,1,31_50_R.jpg,50,,
1165.03,,,,,,,,,2024-01-20_09h57.36.891,Mental Fatigue Training Session,2020.2.4,MacIntel,60,,,,,,,,,,,,,,,,,,,,,d,,,,,,,,,,,,,,,,,,,,,,,,,,,,,,,,,,,,,,,,,,,,,,,,,,,,,,,,d,1,1.94,0,40,40,25,1,21_0_R.jpg,0,,
1169.174,,,,,,,,,2024-01-20_09h57.36.891,Mental Fatigue Training Session,2020.2.4,MacIntel,60,,,,,,,,,,,,,,,,,,,,,k,,,,,,,,,,,,,,,,,,,,,,,,,,,,,,,,,,,,,,,,,,,,,,,,,,,,,,,,k,1,2.796,0,41,41,44,1,25_150.jpg,150,,
1174.19,,,,,,,,,2024-01-20_09h57.36.891,Mental Fatigue Training Session,2020.2.4,MacIntel,60,,,,,,,,,,,,,,,,,,,,,k,,,,,,,,,,,,,,,,,,,,,,,,,,,,,,,,,,,,,,,,,,,,,,,,,,,,,,,,k,1,1.345,0,42,42,14,1,8_50.jpg,50,,
1177.769,,,,,,,,,2024-01-20_09h57.36.891,Mental Fatigue Training Session,2020.2.4,MacIntel,60,,,,,,,,,,,,,,,,,,,,,k,,,,,,,,,,,,,,,,,,,,,,,,,,,,,,,,,,,,,,,,,,,,,,,,,,,,,,,,k,1,2.797,0,43,43,90,1,48_100.jpg,100,,
1182.786,,,,,,,,,2024-01-20_09h57.36.891,Mental Fatigue Training Session,2020.2.4,MacIntel,60,,,,,,,,,,,,,,,,,,,,,k,,,,,,,,,,,,,,,,,,,,,,,,,,,,,,,,,,,,,,,,,,,,,,,,,,,,,,,,k,1,1.879,0,44,44,42,1,25_100.jpg,100,,
1186.889,,,,,,,,,2024-01-20_09h57.36.891,Mental Fatigue Training Session,2020.2.4,MacIntel,60,,,,,,,,,,,,,,,,,,,,,d,,,,,,,,,,,,,,,,,,,,,,,,,,,,,,,,,,,,,,,,,,,,,,,,,,,,,,,,d,1,1.908,0,45,45,89,1,48_0_R.jpg,0,,
1191.024,,,,,,,,,2024-01-20_09h57.36.891,Mental Fatigue Training Session,2020.2.4,MacIntel,60,,,,,,,,,,,,,,,,,,,,,k,,,,,,,,,,,,,,,,,,,,,,,,,,,,,,,,,,,,,,,,,,,,,,,,,,,,,,,,k,1,1.132,0,46,46,64,1,31_0.jpg,0,,
1194.375,,,,,,,,,2024-01-20_09h57.36.891,Mental Fatigue Training Session,2020.2.4,MacIntel,60,,,,,,,,,,,,,,,,,,,,,d,,,,,,,,,,,,,,,,,,,,,,,,,,,,,,,,,,,,,,,,,,,,,,,,,,,,,,,,d,1,2.185,0,47,47,51,1,29_100_R.jpg,100,,
1198.789,,,,,,,,,2024-01-20_09h57.36.891,Mental Fatigue Training Session,2020.2.4,MacIntel,60,,,,,,,,,,,,,,,,,,,,,k,,,,,,,,,,,,,,,,,,,,,,,,,,,,,,,,,,,,,,,,,,,,,,,,,,,,,,,,k,1,3.148,0,48,48,36,1,23_150.jpg,150,,
1204.146,,,,,,,,,2024-01-20_09h57.36.891,Mental Fatigue Training Session,2020.2.4,MacIntel,60,,,,,,,,,,,,,,,,,,,,,k,,,,,,,,,,,,,,,,,,,,,,,,,,,,,,,,,,,,,,,,,,,,,,,,,,,,,,,,k,1,1.623,0,49,49,66,1,31_100.jpg,100,,
1207.982,,,,,,,,,2024-01-20_09h57.36.891,Mental Fatigue Training Session,2020.2.4,MacIntel,60,,,,,,,,,,,,,,,,,,,,,k,,,,,,,,,,,,,,,,,,,,,,,,,,,,,,,,,,,,,,,,,,,,,,,,,,,,,,,,k,1,1.838,0,50,50,58,1,30_100.jpg,100,,
1212.031,,,,,,,,,2024-01-20_09h57.36.891,Mental Fatigue Training Session,2020.2.4,MacIntel,60,,,,,,,,,,,,,,,,,,,,,k,,,,,,,,,,,,,,,,,,,,,,,,,,,,,,,,,,,,,,,,,,,,,,,,,,,,,,,,k,1,1.659,0,51,51,4,1,1_150.jpg,150,,
1215.889,,,,,,,,,2024-01-20_09h57.36.891,Mental Fatigue Training Session,2020.2.4,MacIntel,60,,,,,,,,,,,,,,,,,,,,,d,,,,,,,,,,,,,,,,,,,,,,,,,,,,,,,,,,,,,,,,,,,,,,,,,,,,,,,,d,1,2.663,0,52,52,53,1,29_150_R.jpg,150,,
1220.784,,,,,,,,,2024-01-20_09h57.36.891,Mental Fatigue Training Session,2020.2.4,MacIntel,60,,,,,,,,,,,,,,,,,,,,,d,,,,,,,,,,,,,,,,,,,,,,,,,,,,,,,,,,,,,,,,,,,,,,,,,,,,,,,,d,1,2.443,0,53,53,77,1,39_150_R.jpg,150,,
1225.458,,,,,,,,,2024-01-20_09h57.36.891,Mental Fatigue Training Session,2020.2.4,MacIntel,60,,,,,,,,,,,,,,,,,,,,,d,,,,,,,,,,,,,,,,,,,,,,,,,,,,,,,,,,,,,,,,,,,,,,,,,,,,,,,,d,1,1.31,0,54,54,7,1,1_50_R.jpg,50,,
1228.981,,,,,,,,,2024-01-20_09h57.36.891,Mental Fatigue Training Session,2020.2.4,MacIntel,60,,,,,,,,,,,,,,,,,,,,,d,,,,,,,,,,,,,,,,,,,,,,,,,,,,,,,,,,,,,,,,,,,,,,,,,,,,,,,,d,1,2.173,0,55,55,29,1,21_150_R.jpg,150,,
1233.384,,,,,,,,,2024-01-20_09h57.36.891,Mental Fatigue Training Session,2020.2.4,MacIntel,60,,,,,,,,,,,,,,,,,,,,,d,,,,,,,,,,,,,,,,,,,,,,,,,,,,,,,,,,,,,,,,,,,,,,,,,,,,,,,,d,1,2.986,0,56,56,3,1,1_100_R.jpg,100,,
1238.578,,,,,,,,,2024-01-20_09h57.36.891,Mental Fatigue Training Session,2020.2.4,MacIntel,60,,,,,,,,,,,,,,,,,,,,,d,,,,,,,,,,,,,,,,,,,,,,,,,,,,,,,,,,,,,,,,,,,,,,,,,,,,,,,,d,1,1.938,0,57,57,59,1,30_100_R.jpg,100,,
1242.738,,,,,,,,,2024-01-20_09h57.36.891,Mental Fatigue Training Session,2020.2.4,MacIntel,60,,,,,,,,,,,,,,,,,,,,,d,,,,,,,,,,,,,,,,,,,,,,,,,,,,,,,,,,,,,,,,,,,,,,,,,,,,,,,,d,1,1.447,0,58,58,81,1,43_0_R.jpg,0,,
1246.408,,,,,,,,,2024-01-20_09h57.36.891,Mental Fatigue Training Session,2020.2.4,MacIntel,60,,,,,,,,,,,,,,,,,,,,,d,,,,,,,,,,,,,,,,,,,,,,,,,,,,,,,,,,,,,,,,,,,,,,,,,,,,,,,,d,1,1.008,0,59,59,39,1,23_50_R.jpg,50,,
1249.64,,,,,,,,,2024-01-20_09h57.36.891,Mental Fatigue Training Session,2020.2.4,MacIntel,60,,,,,,,,,,,,,,,,,,,,,k,,,,,,,,,,,,,,,,,,,,,,,,,,,,,,,,,,,,,,,,,,,,,,,,,,,,,,,,k,1,1.692,0,60,60,38,1,23_50.jpg,50,,
1253.562,,,,,,,,,2024-01-20_09h57.36.891,Mental Fatigue Training Session,2020.2.4,MacIntel,60,,,,,,,,,,,,,,,,,,,,,k,,,,,,,,,,,,,,,,,,,,,,,,,,,,,,,,,,,,,,,,,,,,,,,,,,,,,,,,k,1,1.244,0,61,61,34,1,23_100.jpg,100,,
1257.022,,,,,,,,,2024-01-20_09h57.36.891,Mental Fatigue Training Session,2020.2.4,MacIntel,60,,,,,,,,,,,,,,,,,,,,,k,,,,,,,,,,,,,,,,,,,,,,,,,,,,,,,,,,,,,,,,,,,,,,,,,,,,,,,,k,1,1.15,0,62,62,54,1,29_50.jpg,50,,
1260.383,,,,,,,,,2024-01-20_09h57.36.891,Mental Fatigue Training Session,2020.2.4,MacIntel,60,,,,,,,,,,,,,,,,,,,,,k,,,,,,,,,,,,,,,,,,,,,,,,,,,,,,,,,,,,,,,,,,,,,,,,,,,,,,,,k,1,2.525,0,63,63,70,1,31_50.jpg,50,,
1265.125,,,,,,,,,2024-01-20_09h57.36.891,Mental Fatigue Training Session,2020.2.4,MacIntel,60,,,,,,,,,,,,,,,,,,,,,d,,,,,,,,,,,,,,,,,,,,,,,,,,,,,,,,,,,,,,,,,,,,,,,,,,,,,,,,d,1,1.35,0,64,64,69,1,31_150_R.jpg,150,,
1268.701,,,,,,,,,2024-01-20_09h57.36.891,Mental Fatigue Training Session,2020.2.4,MacIntel,60,,,,,,,,,,,,,,,,,,,,,d,,,,,,,,,,,,,,,,,,,,,,,,,,,,,,,,,,,,,,,,,,,,,,,,,,,,,,,,d,1,0.86,0,65,65,33,1,23_0_R.jpg,0,,
1271.786,,,,,,,,,2024-01-20_09h57.36.891,Mental Fatigue Training Session,2020.2.4,MacIntel,60,,,,,,,,,,,,,,,,,,,,,k,,,,,,,,,,,,,,,,,,,,,,,,,,,,,,,,,,,,,,,,,,,,,,,,,,,,,,,,k,1,1.677,0,66,66,76,1,39_150.jpg,150,,
1275.688,,,,,,,,,2024-01-20_09h57.36.891,Mental Fatigue Training Session,2020.2.4,MacIntel,60,,,,,,,,,,,,,,,,,,,,,d,,,,,,,,,,,,,,,,,,,,,,,,,,,,,,,,,,,,,,,,,,,,,,,,,,,,,,,,d,1,0.963,0,67,67,87,1,43_50_R.jpg,50,,
1278.867,,,,,,,,,2024-01-20_09h57.36.891,Mental Fatigue Training Session,2020.2.4,MacIntel,60,,,,,,,,,,,,,,,,,,,,,d,,,,,,,,,,,,,,,,,,,,,,,,,,,,,,,,,,,,,,,,,,,,,,,,,,,,,,,,d,1,1.477,0,68,68,19,1,19_100_R.jpg,100,,
1282.572,,,,,,,,,2024-01-20_09h57.36.891,Mental Fatigue Training Session,2020.2.4,MacIntel,60,,,,,,,,,,,,,,,,,,,,,d,,,,,,,,,,,,,,,,,,,,,,,,,,,,,,,,,,,,,,,,,,,,,,,,,,,,,,,,d,1,1.33,0,69,69,47,1,25_50_R.jpg,50,,
1286.113,,,,,,,,,2024-01-20_09h57.36.891,Mental Fatigue Training Session,2020.2.4,MacIntel,60,,,,,,,,,,,,,,,,,,,,,k,,,,,,,,,,,,,,,,,,,,,,,,,,,,,,,,,,,,,,,,,,,,,,,,,,,,,,,,k,1,1.84,0,70,70,74,1,39_100.jpg,100,,
1290.187,,,,,,,,,2024-01-20_09h57.36.891,Mental Fatigue Training Session,2020.2.4,MacIntel,60,,,,,,,,,,,,,,,,,,,,,k,,,,,,,,,,,,,,,,,,,,,,,,,,,,,,,,,,,,,,,,,,,,,,,,,,,,,,,,k,1,2.058,0,71,71,62,1,30_50.jpg,50,,
1294.48,,,,,,,,,2024-01-20_09h57.36.891,Mental Fatigue Training Session,2020.2.4,MacIntel,60,,,,,,,,,,,,,,,,,,,,,d,,,,,,,,,,,,,,,,,,,,,,,,,,,,,,,,,,,,,,,,,,,,,,,,,,,,,,,,d,1,1.34,0,72,72,17,1,19_0_R.jpg,0,,
1299.622,,,,,,,,,2024-01-20_09h57.36.891,Mental Fatigue Training Session,2020.2.4,MacIntel,60,,,,,,,,,,,,,,,,,,,,,,,,,,,,,,,,,,,,,,,,,,,,,,,,,,,,,,,,,,,,,,,,,,,,,,,,,,,,,,,,,,,,,,,space,2.739
